session_id,trial_idx,initial_error_deg,ballistic_error_deg,min_error_deg,final_error_deg,onset_latency_s,time_to_peak_s,t_first_hit,movement_time_s,settle_time_s,peak_speed_deg_s,mean_speed_deg_s,path_length_deg,tortuosity,n_submovements,target_ele_deg,ele_mean_abs_error_deg,ele_initial_error_deg,ele_min_error_deg,ele_final_error_deg,ele_final_bias_deg,ele_efficiency,ele_initial_dir_correct,reached_target,success,session_order
16.06_10.43,0,14.967577671342022,15.009683153847927,6.231579299536054,8.272640719423046,0.960015058517456,2.8478848934173584,,,,78.42258939317234,21.486039941783048,212.0519449597926,29.468361925839524,8,12.5,9.383092636090094,12.5703125,0.0234375,5.6953125,-5.6953125,0.09872141627735431,False,False,False,0
16.06_10.43,1,35.40169959864436,37.087789774946486,12.718951549385862,34.10327351091323,0.85288405418396,7.547203540802002,,,,85.44963431113493,30.08475607701635,301.23758659530415,16.79210221504379,3,-20.828125,19.838534613929944,20.3046875,0.0625,30.8671875,30.8671875,0.1326133688197359,True,False,False,0
16.06_10.43,2,31.119486247629574,30.837552608449755,5.640625,7.968213830001363,0.43775033950805664,4.421290159225464,,,,71.21450606599119,22.310518510672107,223.9275150293916,5.73614035105978,7,25.0,22.780114925884654,25.0234375,0.015625,5.765625,5.765625,0.1872915569598034,False,False,False,0
16.06_10.43,3,33.383499949041536,33.13917094435083,4.653024260158655,16.419852991596027,0.41680359840393066,5.318633317947388,,,,82.68449308945846,19.867647738045534,199.08182919865314,7.957204616693632,6,-12.5,14.606794647987385,12.0703125,0.015625,6.953125,-6.953125,0.10236847342931069,False,False,False,0
16.06_10.43,4,42.78126783349701,42.999454938405904,1.0606601717798212,2.4315331615310125,0.6519978046417236,1.1320335865020752,8.634585618972778,7.982587814331055,8.634585618972778,62.19460415181238,10.852714103268896,109.27625636616742,2.7039219012649482,3,25.0,12.667776347015485,24.6015625,0.0625,0.921875,-0.921875,0.48330512386521,,True,True,0
16.06_10.43,5,26.780494492333524,26.751224097649366,8.659704297239312,10.163615117940319,1.112952709197998,4.6409430503845215,,,,49.46083548744738,14.368546756112186,143.0728527737237,5.265184055229949,6,-25.0,20.976526721368046,25.0859375,0.046875,4.953125,4.953125,0.24785399427731808,False,False,False,0
16.06_10.43,6,48.68410008989074,48.873921648310116,6.181835317332952,6.181835317332952,0.45954370498657227,3.9694910049438477,,,,172.69488846910485,21.650213139046166,219.4476180508338,5.064710781016769,7,33.34375,43.797187047868675,33.96875,5.890625,5.890625,-5.890625,0.18808875863512664,False,False,False,0
16.06_10.43,7,13.029413839463386,13.080514268010452,6.276370150463164,6.366415789123422,0.5396983623504639,0.5396983623504639,,,,22.10691945221704,10.161773597828248,37.02262684020989,2.4558416124713314,2,-8.328125,7.348933265712552,8.5,3.953125,4.375,4.375,0.26430517711171664,,False,False,0
16.06_10.43,8,36.36243675333964,36.52781557984485,1.3975424859373686,14.424661584120656,1.101693868637085,9.82268500328064,8.531028985977173,7.429335117340088,8.531028985977173,60.03324203872789,12.229420826781423,121.25362766525416,5.523994798893164,5,25.0,15.217134672684402,24.765625,0.03125,9.4765625,-9.4765625,0.2944842340247419,True,True,True,0
16.06_10.43,9,42.94193765732545,42.6700591487041,1.8773422869844487,17.071170602001967,0.4995260238647461,1.7840042114257812,3.043128490447998,2.543602466583252,3.043128490447998,61.311442200318986,13.596988983095615,96.86088775401193,3.743863596724889,4,-25.0,10.2249446843933,24.703125,0.0,9.9453125,9.9453125,0.4215437941607786,True,True,True,0
16.06_10.43,10,40.26925975542635,40.06846024428261,36.19087648863488,36.22081597321663,0.23102140426635742,0.6348018646240234,,,,28.228099585185007,15.480505759129151,12.358162886516173,1.0023914483015728,2,33.34375,34.166621295440976,33.3125,33.3125,34.703125,-34.703125,0.0,,False,False,0
17.06_11.06,11,35.555122884131116,35.75094325815273,1.441908999382416,9.27282867104208,1.1580088138580322,1.3217027187347412,3.4227027893066406,2.2646939754486084,3.4227027893066406,63.52437512640507,15.470211218133567,75.49994326240031,2.8661160827115557,2,25.0,15.407226139415856,24.77734375,0.0625,5.78125,-5.78125,0.6011972633979475,False,True,True,1
17.06_11.06,12,24.06945232673228,24.07213441267485,3.3108781406901704,12.341534611323667,0.5704388618469238,0.7162072658538818,1.640674114227295,1.070235252380371,1.640674114227295,50.67042296390183,13.58940478669972,128.87394187782849,4.009642528120142,4,-16.671875,7.845143413997422,16.525390625,0.0,12.03125,-12.03125,0.2744493820753187,True,True,True,1
17.06_11.06,13,45.60089260365415,50.60869963272742,13.820142469982898,38.38295163953001,0.0,0.04139113426208496,,,,73.59586113805061,18.793751735374883,187.9760471337601,7.94603637371486,6,33.34375,10.486733294215691,24.4375,0.0,0.78125,-0.78125,0.2033017028467438,True,False,False,1
17.06_11.06,14,11.728186304962342,11.703224741939785,1.015625,6.8586286342944724,0.4153621196746826,4.445807218551636,2.0673866271972656,1.652024507522583,2.0673866271972656,30.59037370053335,9.853408205329252,44.90453294520454,8.887974846622058,3,8.328125,5.2799345601769,8.3359375,0.234375,4.09765625,-4.09765625,0.27753245015388733,True,True,True,1
17.06_11.06,15,39.477905468015926,39.44899904941793,1.5,3.771941020548969,0.5409972667694092,3.432812452316284,5.87394118309021,5.332943916320801,5.87394118309021,33.91169616828256,9.486963009002695,69.68015566005565,1.9480086955488511,3,-20.828125,8.303935686611004,20.88671875,0.0,1.40625,1.40625,0.5548407180657882,True,True,True,1
17.06_11.06,16,36.069764250219414,36.09186362088977,1.8651433632900716,22.40618598535137,0.5391755104064941,8.510960817337036,7.189219951629639,6.6500444412231445,7.189219951629639,87.57875293538838,11.13894057760044,92.8525145322134,6.599896553258451,3,12.5,8.038911572101048,12.7265625,0.015625,5.3828125,-5.3828125,0.26541598694942903,False,True,True,1
17.06_11.06,17,9.058835465996719,9.062503367456271,0.5836021167405603,4.848562692248504,1.0214247703552246,1.3353853225708008,5.332818031311035,4.3113932609558105,5.332818031311035,26.107017481185046,8.731053327231335,58.75724340577041,12.730226046008653,2,-4.171875,4.703964947326077,4.25,0.06640625,0.97265625,0.97265625,0.15182874964559115,,True,True,1
17.06_11.06,18,44.565220047595695,44.64259175423349,1.874544215436115,22.823928269694424,0.49971842765808105,7.4133141040802,6.041060447692871,5.54134202003479,6.041060447692871,85.34312223583753,12.11537515721722,89.98767783518122,4.0998874587226135,3,29.171875,14.815674999033199,29.390625,0.015625,13.3671875,-13.3671875,0.55342949661466,True,True,True,1
17.06_11.06,19,33.660375485697344,33.68721379032885,1.3600932010803524,14.496371111096218,0.6505637168884277,9.401003122329712,8.224213123321533,7.5736494064331055,8.224213123321533,43.59366748093019,11.140483174759558,106.60606839242865,4.062548142172101,6,-29.171875,18.757875688603004,28.904296875,0.015625,13.859375,13.859375,0.4376423942953517,True,True,True,1
17.06_11.06,20,21.969295923604523,21.674294444637674,0.5287163848652697,17.08700065636635,0.3751237392425537,7.6104161739349365,6.374808311462402,5.999684572219849,6.374808311462402,58.924421963984365,16.70828202562841,126.44505418869431,25.066677898927935,4,20.828125,19.9803890417941,20.4609375,0.015625,15.47265625,-15.47265625,0.20802034895274432,False,True,True,1
17.06_11.06,21,23.832632770334566,23.709767848518975,0.30338262248355624,13.29525915563984,0.4186701774597168,4.776900768280029,3.424868106842041,3.006197929382324,3.424868106842041,51.25545388106465,16.40444206129385,79.1223234461838,6.916224218192921,3,-16.671875,8.259883981104409,16.703125,0.015625,6.671875,6.671875,0.42105263157894735,True,True,True,1
17.06_11.06,22,34.159145612908794,34.085636673552195,1.1251085017121683,19.71288046557377,0.4210078716278076,4.398160219192505,6.139082908630371,5.7180750370025635,6.139082908630371,75.96270797632481,18.168262014907054,137.17066508456725,9.422166505228835,4,29.171875,27.86841034752401,29.3359375,0.015625,16.1875,-16.1875,0.27892976588628765,False,True,True,1
17.06_11.06,23,30.26151100758047,30.25014130110093,1.6500473478055107,8.26513762740827,0.39688801765441895,6.207060813903809,8.097322702407837,7.700434684753418,8.097322702407837,78.7416323166053,14.999567075327134,142.4907441998387,6.053898226780301,5,-25.0,18.173108865514564,25.03515625,1.3125,8.25,8.25,0.24081050001982632,False,True,True,1
17.06_11.06,24,46.90949007822846,46.59530504012423,43.4319079415285,43.4319079415285,0.5630397796630859,0.625774621963501,,,,30.926873274568745,10.295240216649903,6.861277014439814,0.9580949051672585,1,33.34375,33.59629785863008,33.08984375,33.08984375,34.6015625,-34.6015625,0.0,,False,False,1
17.06_11.06,25,40.06756854912058,40.029103182091156,2.0233620883630787,4.034549279736833,0.43912339210510254,4.778666257858276,8.660703182220459,8.221579790115356,8.660703182220459,72.2741843132437,21.093322373022676,209.39017678232975,5.8082289031550065,5,-20.828125,20.26845232264326,20.79296875,0.046875,2.390625,2.390625,0.17223933841413977,False,True,True,1
17.06_11.06,26,30.859758947374154,30.692703582816815,3.117647600756057,27.13427013432748,0.2905271053314209,8.534986019134521,7.3699493408203125,7.079422235488892,7.3699493408203125,85.49481182818208,18.211139536451448,159.68860523344267,38.122900292268746,5,25.0,24.720715169094795,25.06640625,0.078125,20.9453125,-20.9453125,0.23481261241419815,False,True,True,1
17.06_11.06,27,42.20526865571436,41.931408822109525,1.46875,20.775046066435088,0.24864912033081055,0.8920741081237793,6.3210673332214355,6.072418212890625,6.3210673332214355,98.1721670114767,18.173133112747255,165.7155690963115,7.732724510737223,5,-33.34375,19.641399945296754,33.630859375,0.03125,16.59375,16.59375,0.29768641090865045,False,True,True,1
17.06_11.06,28,12.462018100677016,11.53456890859934,0.511823104817475,11.217988989900956,0.06210017204284668,3.3802762031555176,4.114110708236694,4.052010536193848,4.114110708236694,55.278037746733254,22.937024081845188,226.4311102016115,11.735054191514582,5,8.328125,15.6205425554184,9.11328125,0.0703125,4.55859375,-4.55859375,0.06765642809129965,False,True,True,1
17.06_11.06,29,29.723700238454136,29.358761263812827,0.25048780534189685,15.967075805094213,0.1467118263244629,3.7946760654449463,2.5747671127319336,2.4280552864074707,2.5747671127319336,64.56464038766015,19.476313163949165,76.90421291508423,5.527898480262511,3,-29.171875,14.491724611876556,28.482421875,0.015625,14.796875,14.796875,0.6029953249762111,True,True,True,1
17.06_11.06,30,21.773882152012455,21.059213625290592,4.5,9.3094919966318,0.1872706413269043,7.621479749679565,,,,57.62771879413379,17.415305790104934,172.80422542047393,5.574327019975045,5,0.0,12.587007306816314,1.01953125,0.0,1.05078125,-1.05078125,0.008339723926380369,False,False,False,1
17.06_11.06,31,39.939662630034526,40.37413605040244,1.7241392780167153,31.56491714135529,0.5217533111572266,7.857892036437988,6.657167196273804,6.135413885116577,6.657167196273804,95.07844064019092,23.2080974855519,185.55022612296557,21.359990163892487,6,33.34375,29.593627985958012,33.16796875,0.28125,25.015625,-25.015625,0.27494203324515853,False,True,True,1
17.06_11.06,32,34.48963153220891,34.002810249873704,12.389226115321822,57.387803753792824,0.29772138595581055,6.87703800201416,,,,1191.1841755263401,38.091169084391545,381.407249303368,16.58281333037787,9,4.171875,16.342281014209615,4.05859375,0.01171875,3.974609375,-3.974609375,0.017333835278370353,False,False,False,1
17.06_11.06,33,29.230269665252305,28.663376050055827,3.2503380232869628,20.490762257432618,0.28890466690063477,7.47553277015686,5.899935483932495,5.61103081703186,5.899935483932495,67.38762075507788,20.64007308334377,159.3309509676833,17.334133463458407,3,-25.0,22.871742483122656,25.521484375,0.046875,16.609375,16.609375,0.2556899492266374,False,True,True,1
17.06_11.06,34,36.460980395906304,36.5678166623891,1.0077822185373186,29.44944439867457,0.4560835361480713,4.156647443771362,7.787985324859619,7.331901788711548,7.787985324859619,264.70486253506175,22.91528809311508,216.2593172742972,26.415489361829962,5,16.671875,20.63673031283182,16.52734375,0.078125,9.859375,-9.859375,0.1248480536037238,False,True,True,1
17.06_11.06,35,33.45126601305213,33.822148947094036,0.6853660062331659,19.49008317799481,0.3567073345184326,7.584105014801025,6.4120612144470215,6.055353879928589,6.4120612144470215,75.44531169618814,19.920844397030017,154.89968181521067,10.932521886408676,3,33.34375,28.720898295176465,32.41796875,0.0,19.2578125,-19.2578125,0.27629257249392414,False,True,True,1
17.06_11.06,36,27.28283064590217,27.561964380159193,7.825087515734649,8.667753102601402,0.50803542137146,0.6775014400482178,,,,53.71122335738301,23.00274981635331,30.271899537649247,1.0260987801144543,1,8.328125,8.109775881932954,8.267578125,7.443359375,7.9296875,-7.9296875,0.3268783888458559,,False,False,1
17.06_11.06,37,39.54790329999841,38.261923982109735,4.29801121341313,10.571014042684126,0.2923734188079834,3.766495943069458,,,,153.68610185319972,19.386506336753165,193.89940532830101,6.691483429098484,4,-25.0,19.99311368682902,24.869140625,0.015625,6.609375,6.609375,0.20152669337852178,False,False,False,1
17.06_11.06,38,31.951606636067247,31.805085942680442,1.02364620963495,20.495450142958557,0.18945670127868652,4.709132432937622,3.4752509593963623,3.285794258117676,3.4752509593963623,78.7869150416662,19.67459582471663,95.88469090939664,8.252839028198041,4,25.0,17.48597452224185,24.91796875,0.046875,14.96875,-14.96875,0.4236476146117506,True,True,True,1
17.06_11.06,39,15.498032968054567,15.498032968054567,1.7059180079945226,16.102502668641403,0.03840780258178711,4.200380802154541,7.844434976577759,7.806027173995972,7.844434976577759,74.53387526748195,14.070246996880357,150.1668279615604,42.936420962392866,7,-8.328125,7.661662498921392,8.0390625,0.0390625,5.169921875,5.169921875,0.12388845199927409,False,True,True,1
17.06_11.06,40,34.23443650867363,33.2724535855494,1.778849808338242,1.778849808338242,0.12633728981018066,3.5301222801208496,9.556173324584961,9.42983603477478,9.556173324584961,86.50696248464028,18.639124128548907,187.1604155823773,5.757589574843291,6,29.171875,25.08939021771819,29.2734375,0.03125,1.265625,-1.265625,0.24910155730067882,False,True,True,1
17.06_11.06,41,22.89579927987461,22.420541459146097,0.53125,20.098482277728436,0.27208614349365234,5.425633907318115,6.797366619110107,6.525280475616455,6.797366619110107,92.82455093133646,26.11261168873502,259.4579924088618,10.429944000293535,8,-20.828125,19.947342069279383,21.052734375,0.0,13.65234375,13.65234375,0.15671479042177344,False,True,True,1
17.06_11.06,42,27.545151144303055,27.151728667414645,0.34268300311658295,25.504001677432896,0.5442967414855957,5.754188776016235,4.5059075355529785,3.961610794067383,4.5059075355529785,89.70895343093781,22.97374792514294,135.8347235931051,38.80992102660146,4,16.671875,20.16431193789248,17.21875,0.078125,13.71875,-13.71875,0.1856018949327468,False,True,True,1
17.06_11.06,43,27.795447721929214,27.79888431862602,0.5590169943749475,20.035344745287016,0.3537149429321289,1.1124486923217773,9.194855213165283,8.841140270233154,9.194855213165283,70.88743570182255,15.309634791647282,163.43842486108693,20.252577370567813,6,-25.0,14.659039237901299,24.15625,0.015625,16.40625,16.40625,0.21165833276251797,True,True,True,1
17.06_11.06,44,25.073505525181137,25.419469193169633,2.534190036407096,23.742749281899407,0.29166245460510254,6.180008172988892,5.123342275619507,4.831679821014404,5.123342275619507,58.68014541289528,12.849639104580374,83.14436332478621,26.73259250538855,4,20.828125,13.68560594107376,21.12890625,2.484375,18.404296875,-18.404296875,0.37375200657765945,True,True,True,1
17.06_11.06,45,41.8743244629075,41.901344734772834,1.7900004364524607,15.734243110172157,0.39394402503967285,5.745718955993652,4.39318585395813,3.999241828918457,4.39318585395813,55.074085835805995,14.841204228867495,85.7439527769277,3.2651678740461714,4,-29.171875,16.811665508528048,28.955078125,0.0625,11.9375,11.9375,0.6247307741036361,True,True,True,1
17.06_11.06,46,36.72969999627558,36.435577812989415,1.5081160640017068,33.00488268247274,0.0,6.601649761199951,5.541948556900024,5.541948556900024,5.541948556900024,99.27641204890683,22.559501253290023,154.38701951371272,29.26083996540971,5,29.171875,29.93729511603108,30.4765625,0.015625,25.25390625,-25.25390625,0.2505864584337543,False,True,True,1
17.06_11.06,47,27.123078590232232,26.375506861729402,0.8203125,17.529550942622574,0.29003262519836426,4.7745819091796875,2.1066389083862305,1.8166062831878662,2.1066389083862305,56.43149447212275,16.676869058886577,83.27374535023463,8.100368607070886,3,-16.671875,7.395273086299551,16.53515625,0.0,8.1875,8.1875,0.39464851762073466,True,True,True,1
17.06_11.06,48,38.97224651640134,37.253035248874774,1.5388840315306413,20.54454597066153,0.16660118103027344,4.575671672821045,4.741758584976196,4.575157403945923,4.741758584976196,76.50948633965012,23.840754309720797,246.07952510264445,13.090530041782419,6,20.828125,16.634860090590298,21.5078125,0.0625,13.484375,-13.484375,0.17106001121704992,False,True,True,1
17.06_11.06,49,26.554709335457336,25.569949680438487,23.19154277425286,23.19154277425286,0.10374855995178223,0.45891523361206055,,,,47.17369483932487,26.300364065618286,28.84901286221289,1.094162267704411,1,-25.0,22.948121461453926,24.390625,17.6875,17.6875,17.6875,0.995937318630296,True,False,False,1
17.06_11.06,50,42.75093943138121,42.62521496492028,3.2355825040670805,26.945710030772986,0.37592577934265137,3.200519323348999,8.166275262832642,7.79034948348999,8.166275262832642,52.29688010744825,23.371060266751492,230.58305439486946,14.582320431392919,5,33.34375,23.543440272957486,33.546875,0.0,20.90625,-20.90625,0.20263319333679392,False,True,True,1
17.06_11.06,51,31.099989129950778,28.95812549836661,0.25194555463432966,23.55595586344619,0.12412428855895996,7.749956846237183,3.6926050186157227,3.5684807300567627,3.6926050186157227,74.39235556412928,16.4372737402476,129.53574636690618,13.221810866533042,4,-16.671875,5.946468177460643,16.677734375,0.03125,7.734375,7.734375,0.2476248583631134,True,True,True,1
17.06_11.06,52,12.695988563729552,11.728079619549826,1.5823736126465204,8.192720335999896,0.3110368251800537,3.2883243560791016,8.482502460479736,8.171465635299683,8.482502460479736,65.91878984833471,21.028099766490396,210.81477463613288,14.162950541808181,6,8.328125,13.086557410861003,9.19921875,0.0234375,5.8359375,-5.8359375,0.06448867536032944,True,True,True,1
17.06_11.06,53,31.9634918333505,31.5864399075799,7.002249220116704,8.862901634940162,0.5194082260131836,0.5194082260131836,,,,121.52627262196127,24.140092095313545,239.37691350788697,6.462023865759906,7,-29.171875,25.95838377934728,28.97265625,0.296875,7.140625,-7.140625,0.19131137287605546,True,False,False,1
17.06_11.06,54,42.76120370317907,41.71269565041406,0.5736737422089319,4.343216019336938,0.1259143352508545,3.1019883155822754,9.567752599716187,9.441838264465332,9.567752599716187,81.31813305974973,20.372293078052614,204.28469977217628,4.824621503020684,6,33.34375,18.969817842005522,33.755859375,0.0625,3.140625,-3.140625,0.25494716618635926,False,True,True,1
17.06_11.06,55,38.9255695833001,37.8234416169165,0.8250236739027553,0.8250236739027553,0.14820384979248047,0.68674635887146,9.57198691368103,9.42378306388855,9.57198691368103,188.4977465218851,23.114700905563733,234.19308668256775,6.008749160953036,5,-25.0,20.52893063646056,25.1025390625,0.015625,0.65625,-0.65625,0.1861859032433412,False,True,True,1
17.06_11.06,56,30.112684652950765,29.230335439714217,0.015625,19.282581054643753,0.3005352020263672,2.5335724353790283,4.111634731292725,3.8110995292663574,4.111634731292725,143.69479770441964,23.010922823542145,174.2324922764339,15.769176813579202,6,20.828125,19.266907326188146,21.822265625,0.015625,12.7109375,-12.7109375,0.17071082366252313,False,True,True,1
17.06_11.06,57,35.754605563482926,35.31120889379546,1.7525093616012442,31.195205867899396,0.3751406669616699,3.3500328063964844,2.153918981552124,1.778778314590454,2.153918981552124,70.29794316960482,20.67214453490756,81.05603031125321,13.083158278718802,2,-8.328125,4.560862977018117,8.416015625,0.0390625,3.484375,3.484375,0.4368061920765862,,True,True,1
17.06_11.06,58,28.75601962552135,28.515763123060175,1.140625,22.913934644205177,0.1456592082977295,7.879328489303589,6.774093389511108,6.628434181213379,6.774093389511108,66.66599783223914,18.631004783440357,150.36644230543394,23.127334822363125,4,25.0,27.168495149156897,25.521484375,0.015625,19.0390625,-19.0390625,0.24388831823699691,False,True,True,1
17.06_11.06,59,39.95218017320258,39.66522370179546,0.587134194626748,3.8344654125444917,0.20894575119018555,4.437968492507935,3.4376049041748047,3.228659152984619,9.853675603866577,1225.6000630647393,29.833098349178286,289.5374879679112,6.822067110174554,7,-33.34375,15.204691208699042,33.673828125,0.0,3.625,-3.625,0.16603748146150735,True,True,True,1
17.06_11.06,60,40.11175793953688,39.6661161710436,8.64435385182866,27.88334113571444,0.06333589553833008,3.0074446201324463,,,,67.43598631971396,27.1402421731935,166.5503816358841,4.972959683625672,1,20.828125,28.99504632754439,22.25,0.109375,10.390625,10.390625,0.20385556035102864,False,False,False,1
17.06_11.06,61,10.660247142567803,10.401476249090818,0.44750010911311516,8.457912816711218,0.5398445129394531,6.298959493637085,0.8116130828857422,0.27176856994628906,0.8116130828857422,96.36558839578178,18.14028959147021,193.3685178521796,80.02942631331376,7,-4.171875,8.524056468656777,4.015625,0.078125,2.349609375,2.349609375,0.033867553674024796,False,True,True,1
17.06_11.06,62,48.087077351500874,47.12072252849765,33.97040301865729,62.59368174297327,0.3332979679107666,0.47818803787231445,,,,38.271040723163324,17.658419408403486,63.998959371954584,1.4788190897872813,2,33.34375,40.2444350912109,33.107421875,32.763671875,62.515625,-62.515625,0.01116822133384098,False,False,False,1
17.06_11.06,63,13.066333263062221,11.097720357138403,2.8559149146989657,9.449270424104263,0.10394740104675293,0.4935896396636963,5.782876014709473,5.67892861366272,5.782876014709473,41.5033732312272,11.001112111685721,79.2960810929743,17.794349537287665,3,8.328125,6.0582731095115845,9.1015625,0.09375,4.82421875,-4.82421875,0.2306,False,True,True,1
17.06_11.06,64,42.188987287513164,41.844037032905675,5.785977796578552,9.4350162294508,0.3111138343811035,8.554078578948975,,,,1723.0939976583297,32.30196743978155,317.2815308149309,9.432932004238493,8,33.34375,24.085337058387402,33.126953125,3.0625,9.0625,-9.0625,0.0703753994705729,False,False,False,1
17.06_11.06,65,31.115990250081452,27.349714263037107,2.897373878294791,17.433586310355796,0.04230475425720215,4.924227476119995,2.1314470767974854,2.089142322540283,2.1314470767974854,60.80212591617336,21.708890978836415,216.30443505301403,9.79418125593724,5,-16.671875,15.532610761506756,16.90234375,0.015625,3.265625,-3.265625,0.11137446863326034,True,True,True,1
17.06_11.06,66,29.671348402383487,35.30757104013113,3.3770338923612018,25.47455838675128,0.0,8.981668710708618,7.652810573577881,7.652810573577881,7.652810573577881,64.62207689224377,13.589528620491595,122.16148680078871,12.555836764098645,4,12.5,9.956290868576918,6.828125,0.0,2.25,2.25,0.09627671293236395,True,True,True,1
17.06_11.06,67,47.40844962864116,46.401499783184875,1.7376798468072305,2.1866069605669876,0.5397653579711914,3.4558520317077637,9.665788412094116,9.126023054122925,9.665788412094116,73.94186152372285,15.699393992796088,157.51348697841263,3.476714904819003,5,-33.34375,19.706257208433858,32.6484375,0.0,1.875,1.875,0.303111626894901,False,True,True,1
17.06_11.06,68,47.36286291696698,50.9586444802609,10.625011488964377,23.876656519757955,0.0,1.0294644832611084,,,,106.29122347438134,20.387573553568057,204.2382356440142,7.83750980113064,8,29.171875,11.543957134426453,15.1484375,0.015625,0.28125,0.28125,0.10426871938418475,True,False,False,1
17.06_11.06,69,21.582823090677376,18.686913726694044,1.6538898277999052,18.380400610076865,0.06203031539916992,3.657830238342285,7.272423505783081,7.210393190383911,7.272423505783081,64.83571691919013,19.181709867818142,165.98505970867365,31.761562518586107,5,-12.5,14.3348158599651,12.45703125,0.109375,7.28515625,7.28515625,0.10853964220719019,True,True,True,1
17.06_11.06,70,37.87482963498516,36.7356714354951,1.1254339440855692,29.171774571332218,0.12567853927612305,7.384091854095459,2.925161838531494,2.799483299255371,2.925161838531494,92.72262360966026,14.88687335478503,109.83686528518398,11.76875870472842,6,16.671875,10.425475553785367,17.431640625,0.015625,10.734375,-10.734375,0.2918152960041889,True,True,True,1
17.06_11.06,71,30.335203183010677,29.55030903662695,19.028656981761507,19.028656981761507,0.3123040199279785,0.5001511573791504,,,,52.18353332274202,19.525825237547735,27.254879345991572,1.008184897875286,1,-20.828125,19.310197517767353,19.923828125,18.576171875,18.576171875,18.576171875,0.7986111111111112,,False,False,1
17.06_11.06,72,39.345029051141346,37.04939153997898,0.2125229766989913,27.520909353801454,0.020634174346923828,3.816345453262329,2.5748000144958496,2.554165840148926,2.5748000144958496,126.65359103011927,22.890826918677952,86.1522490456021,7.211403361617249,4,25.0,14.274472976915975,25.0078125,0.046875,16.3671875,-16.3671875,0.5001956947162427,True,True,True,1
17.06_11.06,73,34.3833393315729,34.010175696897505,0.375,25.538335967793717,0.25048255920410156,7.874365329742432,6.747157096862793,6.496674537658691,6.747157096862793,80.07659426702577,23.151127832577913,188.59773392285473,19.06233954649379,4,-33.34375,32.69162724539538,33.150390625,0.0,23.3359375,23.3359375,0.2652570053292075,False,True,True,1
17.06_11.06,74,39.04392610170999,37.85420466945814,1.5814476161099993,28.128109908356826,0.20891833305358887,4.208548069000244,7.259615659713745,7.050697326660156,7.259615659713745,77.27942186191665,21.7571192582286,186.9973119782254,17.12825230867436,6,-16.671875,15.689794860246533,17.048828125,0.015625,12.13671875,12.13671875,0.1464803399566656,False,True,True,1
17.06_11.06,75,39.6747588123281,37.87181556332492,0.38049361443393503,43.109024051953604,0.08330011367797852,3.6086978912353516,2.4372565746307373,2.353956460952759,2.4372565746307373,99.00457822466655,25.59162840016873,107.68238357839692,30.273824385544597,3,25.0,15.800412328079089,25.5234375,0.078125,28.46484375,-28.46484375,0.39941136795634313,True,True,True,1
17.06_11.06,76,31.255772477110035,29.409356013008065,0.899354151947385,26.73338529180613,0.24999284744262695,5.523650407791138,4.423098087310791,4.173105239868164,4.423098087310791,72.01432133428247,18.6545605522381,108.45547247334629,14.011842845424292,5,-16.671875,8.321815119868246,16.771484375,0.015625,9.1328125,9.1328125,0.29145574995753354,True,True,True,1
17.06_11.06,77,34.353438728043024,32.40479242179178,3.2451887464367926,28.42589048737084,0.061559200286865234,4.047983169555664,2.9466071128845215,2.8850479125976562,2.9466071128845215,81.54368086239569,19.499506806054978,84.68007941548171,14.023747045437366,3,20.828125,14.473841228228281,21.3984375,2.140625,16.875,-16.875,0.48172757475083056,True,True,True,1
17.06_11.06,78,34.38204473267987,33.762029976311226,0.37629983058725924,24.895484655856773,0.10503697395324707,7.109060287475586,3.7118213176727295,3.6067843437194824,3.7118213176727295,60.55845345251313,16.043847657074583,114.82305640667532,10.76283465863328,5,-33.34375,13.76445024102316,33.25,0.0625,22.6875,22.6875,0.4651773981603154,True,True,True,1
17.06_11.06,79,41.36102081817297,40.647854570779934,3.0003661885884862,34.69670837796613,0.31241464614868164,5.8005735874176025,4.651715993881226,4.339301347732544,4.651715993881226,96.8688424162938,23.860201115623134,144.429776843804,18.55447231290645,4,20.828125,19.66879338505198,21.224609375,0.046875,14.546875,-14.546875,0.22761718832000336,False,True,True,1
17.06_11.06,80,14.38295466048701,13.955684961001122,1.1953125,14.687575319786927,0.34096479415893555,0.5090768337249756,0.5303165912628174,0.18935179710388184,0.5303165912628174,89.83330971296328,13.130455123055583,105.41120249000923,97.62352271366984,5,-4.171875,4.533938761120957,3.296875,0.02734375,2.33984375,2.33984375,0.07773753134577877,True,True,True,1
17.06_11.06,81,33.4299481857131,33.105367348664764,1.4477386731123127,14.885836717014767,0.25101351737976074,7.667201280593872,3.623699188232422,3.372685670852661,3.623699188232422,76.90200879509531,16.769575882624576,130.8179523557905,5.02840344441159,6,25.0,11.014779778224117,24.837890625,0.15625,14.796875,-14.796875,0.3677501964322091,True,True,True,1
17.06_11.06,82,26.71062394990452,24.427608741906283,0.18814991529362962,13.464072563678496,0.041210174560546875,7.493794679641724,6.1597912311553955,6.118581056594849,6.1597912311553955,57.94357025748349,15.523579223048381,117.15906558033765,8.665413668369737,6,-20.828125,9.249732857113116,20.287109375,0.140625,8.875,8.875,0.3305771880908887,True,True,True,1
17.06_11.06,83,47.44306826673945,45.86604658269531,2.6782179826332286,3.4631147919900087,0.06226396560668945,3.1282174587249756,9.632172584533691,9.569908618927002,9.67329454421997,73.18836840924628,17.985998699356117,177.89102301099422,3.9053586656823596,9,33.34375,14.246688519685511,33.71875,0.0,3.40625,-3.40625,0.4030254925763377,True,True,True,1
17.06_11.06,84,26.611852417426977,24.053230065563213,1.3750887755432375,26.448267987083796,0.0623776912689209,4.806080102920532,3.6534743309020996,3.5910966396331787,3.6534743309020996,107.25334717427398,24.622773799087085,125.71158831178093,33.14931812051158,3,-20.828125,9.906065071383793,19.71484375,0.015625,16.86328125,16.86328125,0.27437431991294886,True,True,True,1
17.06_11.06,85,34.84962464490292,34.4283428444592,0.625,30.286248549404217,0.0,8.47335433959961,2.983114004135132,2.983114004135132,2.983114004135132,87.53576358953356,17.08613138927115,149.92281838702831,32.74753905302663,5,33.34375,9.443048015543056,33.109375,0.0,28.87890625,-28.87890625,0.36307560505461556,True,True,True,1
17.06_11.06,86,31.55636742566799,29.62132040744747,4.398402808477755,15.74101461201358,0.12529635429382324,0.4595775604248047,,,,50.189465758630185,18.247226470497637,105.72161706336789,2.259177234409394,5,-20.828125,12.432775114827985,20.341796875,0.015625,13.328125,-13.328125,0.35644073021200806,True,False,False,1
17.06_11.06,87,36.468308996101754,35.9389342444779,3.605551275463989,6.001383304080818,0.7997000217437744,2.198920249938965,7.5579023361206055,6.758202314376831,7.5579023361206055,122.94373824755957,16.808263968298128,168.37363601870794,5.472907856758463,7,20.828125,16.400197758847014,19.9921875,0.015625,1.71875,-1.71875,0.17192227526390103,False,True,True,1
17.06_11.06,88,12.271067661882563,12.042658957457236,3.4765625,16.053993674180422,0.5911777019500732,8.377640962600708,0.7792236804962158,0.18804597854614258,0.7792236804962158,100.04327772429652,22.126101852607935,218.6917864473049,8.369179939236615,11,-4.171875,6.953553556175196,4.28125,0.015625,6.890625,6.890625,0.035690939992155835,True,True,True,1
17.06_11.06,89,37.76701244477654,37.45342159352734,1.7897958376935064,31.978364306064908,0.2922811508178711,5.840839862823486,4.6991026401519775,4.4068214893341064,4.6991026401519775,97.6611114274727,23.08363693229538,136.00293183769838,23.420026536895556,5,29.171875,18.40224338961989,29.6640625,1.390625,24.8515625,-24.8515625,0.2864946168461051,True,True,True,1
17.06_11.06,90,37.38205736567512,37.42577289198581,1.005963662676242,9.148207325242744,0.3333868980407715,9.802671670913696,2.3540544509887695,2.020667552947998,2.3540544509887695,60.170730318133295,13.601462727490249,132.08868822973832,4.65713062074423,5,-20.828125,7.185804320943893,20.890625,0.015625,3.953125,3.953125,0.2744453574363188,True,True,True,1
17.06_11.06,91,31.945789194596916,31.404509629950542,0.8928152891976033,24.225845734721005,0.10431766510009766,4.761824369430542,3.6727352142333984,3.568417549133301,3.6727352142333984,74.13503970435896,18.678740442416114,94.8038427950915,10.927794915474824,3,29.171875,15.686750926484184,28.953125,0.015625,20.28125,-20.28125,0.5539934190846545,True,True,True,1
17.06_11.06,92,30.538662778785948,30.523237537737643,4.1269230839240265,20.567634474839956,0.24983882904052734,3.8378829956054688,,,,104.83932670311707,19.72686004570176,193.79607755798637,5.87060282489047,7,-29.171875,18.560429566062076,29.0234375,0.046875,10.390625,10.390625,0.2528461381143909,False,False,False,1
17.06_11.06,93,21.70829334609241,21.098183851137666,1.078125,32.3503399461104,0.2711498737335205,3.9517195224761963,4.995797634124756,4.724647760391235,4.995797634124756,115.36444968927617,28.20009453192937,276.6048991864157,12.325576858048573,6,16.671875,14.064954708812241,17.0,0.109375,32.2109375,-32.2109375,0.0935971254166847,False,True,True,1
17.06_11.06,94,33.254244655346724,31.055283995843606,2.580775153054795,6.82202602329396,0.16857624053955078,6.937700510025024,2.1721255779266357,2.003549337387085,2.1721255779266357,1322.4501385427022,27.600138894093504,276.70818884335563,7.799579925137712,8,-16.671875,9.783308482317617,15.8203125,0.015625,6.59375,-6.59375,0.048823458428864486,True,True,True,1
17.06_11.06,95,39.852040344616064,36.51246576513287,0.729538595620547,33.42647306496006,0.04159188270568848,5.70349383354187,4.491814136505127,4.4502222537994385,4.491814136505127,103.76599227381831,17.92331257001341,105.43300479334255,15.552338428180823,4,20.828125,13.695319429718085,20.7890625,0.0,15.71875,-15.71875,0.37803665293365535,True,True,True,1
17.06_11.06,96,41.68360015608844,39.42675480103105,3.1525349423122973,7.633256288275666,0.06296324729919434,3.4075493812561035,8.820053577423096,8.757090330123901,8.820053577423096,70.4129170212706,23.552753270583946,236.45097412234895,5.86042976362876,6,-25.0,18.811404358230668,24.8046875,0.03125,4.71875,-4.71875,0.16376594535970665,False,True,True,1
17.06_11.06,97,33.37014335128269,31.56491714135529,3.2518399238930873,9.337633867848965,0.0414278507232666,2.3368465900421143,2.3153789043426514,2.2739510536193848,2.3153789043426514,153.0204549245236,31.60283098937544,203.61840752748935,5.9974998792340966,5,29.171875,19.530009760442034,28.2578125,0.109375,5.5625,-5.5625,0.1897214470012111,True,True,True,1
17.06_11.06,98,29.670060667278722,28.275501185392915,0.3125,20.89399047311511,0.0208585262298584,6.815120220184326,6.918835163116455,6.897976636886597,6.918835163116455,90.33373412651892,22.376065868937246,201.8401058711215,20.24616423979681,8,-29.171875,16.38992532828984,28.5,0.0,18.609375,18.609375,0.22603630956069148,False,True,True,1
17.06_11.06,99,19.820706662418882,18.038277511070902,0.7503661215741619,5.636988093443608,0.18870091438293457,5.200612545013428,3.3642642498016357,3.175563335418701,3.3642642498016357,68.66193462759149,17.50134218276914,171.7147570163823,7.602273995178087,9,8.328125,7.626502551116293,8.8203125,0.015625,3.703125,-3.703125,0.07472979245408129,True,True,True,1
17.06_11.06,100,39.16334560734254,37.837408666938416,0.5457577873929056,32.234920317733454,0.16649913787841797,7.079646587371826,2.260723352432251,2.094224214553833,2.260723352432251,116.22373241426791,23.718162704706813,171.49023652732936,24.093831859287697,6,-20.828125,10.745973555652009,19.8671875,0.0,17.609375,17.609375,0.1747165922363449,True,True,True,1
17.06_11.06,101,23.48436070566764,22.577476201750827,0.5340002340823456,18.463547543487547,0.0619354248046875,0.2276782989501953,5.440563917160034,5.378628492355347,5.440563917160034,62.272000905578416,17.333925628133866,115.89783844423,22.07927487415116,5,20.828125,11.446303466131292,21.5859375,0.140625,16.390625,-16.390625,0.2895264212635798,True,True,True,1
17.06_11.06,102,35.54527898202736,35.25848416433137,0.25,26.05048926071555,0.0,5.500268936157227,4.315425872802734,4.315425872802734,4.315425872802734,69.6019726660256,17.743256046533567,101.57547054029266,8.505210504975178,3,-33.34375,14.217760998812974,35.1171875,0.03125,24.0546875,24.0546875,0.5106891062087787,True,True,True,1
17.06_11.06,103,27.92672405607049,26.82452108874686,7.057797106746552,7.057797106746552,0.12520575523376465,3.6250967979431152,,,,60.87499060690659,19.320528261847425,191.46332774031436,6.4585882136871575,8,25.0,20.99144195381388,24.1640625,0.578125,2.75,-2.75,0.170228361996053,False,False,False,1
17.06_11.06,104,21.188077575553102,16.3703047449156,1.459077191241094,21.169660862083383,0.0,3.8139519691467285,4.651509761810303,4.651509761810303,4.651509761810303,107.3113375237274,21.56351870514762,216.83960551274987,36.448456231995685,8,-12.5,15.614267273942337,11.5703125,0.046875,6.171875,6.171875,0.0844933264593,False,True,True,1
17.06_11.06,105,35.638190574738864,34.46221269744452,2.28125,25.574383125808236,0.2504158020019531,7.498486757278442,6.413143873214722,6.1627280712127686,6.413143873214722,174.5164088325853,13.770661517057796,107.60790923739702,10.32592493148953,3,25.0,11.630488560437454,25.3984375,0.015625,16.546875,-16.546875,0.4138326327856324,True,True,True,1
17.06_11.06,106,28.462437554828295,27.20195377289102,1.489874680132527,19.938052561406447,0.04129958152770996,1.938415288925171,2.8974270820617676,2.8561275005340576,2.8974270820617676,1140.5069803540523,26.819455846060333,200.46739996265825,20.226288473621896,2,-25.0,10.447392344648867,24.78125,0.03125,14.8984375,14.8984375,0.03758943509059196,True,True,True,1
17.06_11.06,107,24.4355218189115,23.98194714910572,2.8219026853569917,14.347289868212044,0.29213833808898926,3.028470277786255,5.727981328964233,5.435842990875244,5.727981328964233,61.517578620440105,18.035526907270356,178.27145723154274,6.2221756444309415,7,20.828125,12.850965799346687,20.53125,0.0,7.46875,-7.46875,0.1770173784184292,False,True,True,1
17.06_11.06,108,38.24632415063121,36.84903167321912,1.174268389253496,22.841250344172412,0.04148602485656738,6.167880058288574,4.81369423866272,4.772208213806152,4.81369423866272,53.93966657914867,15.268283389370126,99.01052036900708,6.132174834481461,5,-33.34375,16.7030365748411,34.0078125,0.375,21.7421875,21.7421875,0.5176767676767676,True,True,True,1
17.06_11.06,109,35.39763313613814,34.81993388003711,4.917309390370408,4.917309390370408,0.0,6.043165922164917,,,,55.90734403508701,22.539420289917047,139.45577968915129,4.340543094002502,2,33.34375,27.99959466940294,34.234375,4.234375,4.234375,-4.234375,0.32498307379823965,False,False,False,1
17.06_11.06,110,40.44175016304314,39.32778124228986,0.8605106133133977,29.11659217596397,0.19242358207702637,6.524012088775635,5.269891977310181,5.077468395233154,5.269891977310181,79.25256010916097,18.3995486387116,122.6866898503207,9.826316892996973,7,-20.828125,9.638718141681473,20.6875,0.015625,10.8984375,10.8984375,0.34093544646308466,True,True,True,1
17.06_11.06,111,32.21128141491153,27.885827668649625,1.4711582649820514,30.75859036671961,0.020470619201660156,4.21192193031311,1.5866029262542725,1.5661323070526123,1.5866029262542725,85.22620189946333,20.943272489096422,90.69939881875095,18.91311072582427,4,12.5,5.816448155400568,10.359375,0.046875,5.5703125,-5.5703125,0.2828369402185558,True,True,True,1
17.06_11.06,112,41.21476951970616,39.23454689951391,1.7930666163377758,30.18448423244807,0.10172677040100098,0.273301362991333,2.60384464263916,2.502117872238159,2.60384464263916,153.0652938333118,21.82413164237697,88.3885931218077,6.56902071828569,3,-29.171875,14.492723481677583,29.53125,0.015625,16.5390625,16.5390625,0.5793589940193222,True,True,True,1
17.06_11.06,113,37.35611148047139,36.36962431417056,1.6491593502448452,31.77906154123193,0.042051076889038086,7.5929296016693115,6.512554883956909,6.470503807067871,6.512554883956909,92.25573472884902,18.67323408459419,147.8065655886174,22.672492185648412,5,33.34375,23.02299196035329,34.1015625,0.03125,27.6015625,-27.6015625,0.3266177351707609,False,True,True,1
17.06_11.06,114,32.360383140078184,30.09790339978019,1.9131534831267458,30.900310072839986,0.0,2.9449622631073,3.510396718978882,3.510396718978882,3.510396718978882,103.24831464292832,23.124712135378026,168.5327982278897,27.555667032432837,5,-25.0,17.289749587186396,26.1953125,0.03125,21.1796875,21.1796875,0.21110690872415533,True,True,True,1
17.06_11.06,115,33.351832431854476,31.724307741228277,0.171875,32.28935643617723,0.04209017753601074,3.7412359714508057,2.637784957885742,2.5956947803497314,2.637784957885742,88.08964172355903,24.08166642379679,97.43543972796675,91.70394327338047,3,29.171875,16.47147432144313,29.53125,0.015625,28.59375,-28.59375,0.4720139930034983,True,True,True,1
17.06_11.06,116,39.8180255498864,39.247126188582264,1.4740595518838444,29.75059085547714,0.3540921211242676,7.108060836791992,5.85612154006958,5.5020294189453125,5.85612154006958,88.43957773503232,20.232785049732737,144.3279942352109,14.136897879629544,6,-33.34375,15.32802235101174,32.8515625,0.03125,23.6875,23.6875,0.32951604047376265,False,True,True,1
17.06_11.06,117,40.13491727252787,38.00416301209645,0.0,39.59929990823899,0.041825294494628906,7.230014085769653,1.8986928462982178,1.8568675518035889,1.8986928462982178,107.30615211687525,24.2169250064954,184.41157810047497,35.03412487861724,5,29.171875,10.955018435804519,29.6953125,0.0,25.5546875,-25.5546875,0.2710546958568067,True,True,True,1
17.06_11.06,118,26.60625532211598,23.486876374188338,1.8275406384417967,23.99519935914591,0.02145075798034668,2.0894412994384766,5.763960838317871,5.742510080337524,5.763960838317871,83.83319877573247,21.48938256716409,160.72196600528576,37.47251666425606,6,-16.671875,9.466123833712714,17.546875,0.015625,13.2578125,13.2578125,0.23638470451911936,True,True,True,1
17.06_11.06,119,30.4594416871128,24.503392821518105,1.359375,31.46116545267554,0.0,6.287405252456665,5.2050700187683105,5.2050700187683105,5.2050700187683105,101.99585923916209,26.32949474028746,173.94654802983263,41.4151110894398,5,12.5,13.961977461248926,13.609375,0.015625,10.234375,-10.234375,0.12700729927007298,False,True,True,1
17.06_11.06,120,40.96321055704283,36.14756877738287,3.557699616676484,12.356836417546361,0.0,1.6368849277496338,8.190770864486694,8.190770864486694,8.190770864486694,101.81784126512814,18.012971494447836,179.72339626949116,3.9687998004742364,6,-25.0,8.26067101355916,26.484375,0.03125,10.9375,-10.9375,0.3250768049155146,True,True,True,1
17.06_11.06,121,22.5641663165848,21.14865539461079,2.6984243811203976,19.999371328009914,0.0,3.870445966720581,6.822048664093018,6.822048664093018,6.822048664093018,103.61887647545626,15.696370963235129,128.48610397704755,48.20721333246988,5,20.828125,8.562877066125045,21.28125,0.078125,19.078125,-19.078125,0.2586732748760961,True,True,True,1
17.06_11.06,122,36.2956146533766,36.63417120667533,2.03125,27.48962983627019,0.14550089836120605,4.196168422698975,3.001678943634033,2.856178045272827,3.001678943634033,70.35680095617998,20.524432803082533,90.29819839811287,9.243507099654806,3,-33.34375,19.234908839085826,33.2734375,1.78125,23.5078125,23.5078125,0.5200619274932267,True,True,True,1
17.06_11.06,123,31.098197703253238,30.722923204895498,0.729538595620547,31.845452949128486,0.02045273780822754,3.7176902294158936,4.216873645782471,4.196420907974243,4.216873645782471,145.70981712304393,33.31342679378192,186.40459273758512,46.98985068062383,4,25.0,30.583997160017326,25.359375,0.046875,23.4921875,-23.4921875,0.16914643696162882,False,True,True,1
17.06_11.06,124,37.67746501065201,34.40357122292139,6.400988693162955,15.07390646945907,0.04171586036682129,0.6054635047912598,,,,52.77129123373651,19.20967844666307,182.53369065139768,7.837552670172861,7,-25.0,11.824687156530237,25.2109375,0.0,7.1875,7.1875,0.24112680266009115,True,False,False,1
17.06_11.06,125,46.04566347659679,42.89419739790169,0.5038911092686593,41.541044046269484,0.04204082489013672,5.577226400375366,2.5482141971588135,2.5061733722686768,2.5482141971588135,124.37908429189872,22.6224610246194,132.81392202875875,19.300225360339187,4,29.171875,11.357030564176446,29.625,0.015625,22.76171875,-22.76171875,0.5009582975348622,True,True,True,1
17.06_11.06,126,31.465911343232317,31.219360956546762,1.5662455107677085,30.322953456872504,0.2917301654815674,8.098992347717285,3.877885580062866,3.586155414581299,3.877885580062866,96.55628505376578,21.17180550250949,176.19186036541186,48.1698768417766,9,-25.0,11.583304827507547,25.6328125,0.0625,22.5703125,22.5703125,0.23834838333818817,True,True,True,1
17.06_11.06,127,37.628932810706395,36.64147536992958,1.57649978195368,12.617920354103523,0.02096724510192871,3.869412422180176,7.843139886856079,7.82217264175415,7.843139886856079,55.360380304336594,15.557665667390404,155.95345964265414,4.357903811567761,5,33.34375,13.091597029151723,33.6953125,0.03125,8.84375,-8.84375,0.3312831552241101,True,True,True,1
17.06_11.06,128,39.700312431124594,39.61947371879019,1.366807983039315,33.75567895653124,0.5598604679107666,7.1780359745025635,3.213482618331909,2.6536221504211426,3.213482618331909,105.25200712079173,19.490497787564507,144.45245111829905,19.245589201201547,4,-25.0,9.450066053428968,25.7109375,0.0,18.4765625,18.4765625,0.27122136146365583,True,True,True,1
17.06_11.06,129,30.330101204290433,28.594058442667006,0.38654115240165565,25.386081324221745,0.04149150848388672,6.889247417449951,5.873847246170044,5.832355737686157,5.873847246170044,97.15858007203609,16.204381943183922,116.10943105472147,22.137662412856432,7,25.0,10.370786157566688,25.84375,0.078125,20.75,-20.75,0.38030442804428044,True,True,True,1
17.06_11.06,130,44.52028373744377,41.02304992318343,3.7605320850246713,4.043827279014276,0.02045416831970215,3.086566925048828,9.47705602645874,9.456601858139038,9.47705602645874,70.71972241170282,23.292323054061377,233.88413889655118,5.509635986740612,6,-33.34375,22.17292212626336,33.34375,0.03125,0.59375,-0.59375,0.21741790740363043,False,True,True,1
17.06_11.06,131,30.846662729742743,31.203970006084564,0.5238454566950066,25.214049476742623,0.5008902549743652,0.8372573852539062,1.7758524417877197,1.2749621868133545,1.7758524417877197,88.02206224993724,17.516462556425857,186.28116156240645,31.60643091356566,7,16.671875,7.662095337075157,17.71875,0.015625,13.171875,-13.171875,0.20101126585647122,True,True,True,1
17.06_11.06,132,36.83120495845074,34.41276689530537,0.2728788936964528,22.296497237514686,0.1862947940826416,7.234869718551636,6.089540719985962,5.90324592590332,6.089540719985962,74.73174843439799,15.778896450695779,118.75547052708177,7.313182149287326,5,-16.671875,8.725550388603262,16.8515625,0.078125,4.90625,4.90625,0.270846474075943,True,True,True,1
17.06_11.06,133,38.77015604817706,35.48556267965053,0.2619227283475033,37.88443651138494,0.0,6.864133358001709,3.9253621101379395,3.9253621101379395,3.9253621101379395,111.76333113112923,19.03276761014035,136.5473825462418,21.30481419394023,4,29.171875,7.802059931495329,30.25,0.015625,25.2421875,-25.2421875,0.4004967401428128,True,True,True,1
17.06_11.06,134,35.53597703824253,33.7262792798509,0.729538595620547,30.536866966678573,0.021056175231933594,3.4110419750213623,5.898030519485474,5.87697434425354,5.898030519485474,131.767025807943,21.96065248054224,166.36963876332663,15.220866265025201,6,-25.0,19.208844065723103,26.65625,0.0,16.015625,16.015625,0.2267109634551495,False,True,True,1
17.06_11.06,135,17.62835185326467,17.134150155829147,7.178680050373119,15.462484921299236,0.37570977210998535,0.835029125213623,,,,75.85541954570289,15.954161947927146,159.97245495179885,6.235824660152323,3,12.5,8.132062242678144,11.90625,0.0390625,9.1015625,-9.1015625,0.12139375049948053,False,False,False,1
17.06_11.06,136,48.57969300299895,48.08738637642542,6.799658194534487,46.1709734472049,0.33290719985961914,4.371370792388916,,,,91.55250573759794,26.742330407546124,142.314199896852,3.5224681057294447,1,-25.0,15.05002904837076,25.046875,0.0,45.65625,45.65625,0.2733162830349531,True,False,False,1
17.06_11.06,137,30.99551162221163,30.680820460682355,2.0377899525282284,14.993561443687254,0.14667534828186035,0.35597729682922363,5.1580491065979,5.01137375831604,5.1580491065979,70.49789041122595,13.27896285655001,132.69648072157477,4.971224549089109,5,29.171875,8.211137581837269,29.9453125,0.015625,10.703125,-10.703125,0.3962966794248474,True,True,True,1
17.06_11.06,138,39.03541873754687,39.4877918547797,0.9013878188659973,32.9344321166717,0.35596609115600586,5.5224339962005615,2.4331750869750977,2.077208995819092,2.4331750869750977,97.87423104287681,20.405718700965803,117.55738282776075,14.701397146654267,5,-25.0,10.51828250891226,24.671875,0.03125,16.9296875,16.9296875,0.3835583120515627,True,True,True,1
17.06_11.06,139,24.283714532663783,20.63668141026813,2.817400245017559,19.94827448139704,0.0,0.3955516815185547,6.80014705657959,6.80014705657959,6.80014705657959,60.68345051736728,16.06045511650546,131.65602825227938,26.782246232645832,4,16.671875,7.090293578548693,16.8359375,0.0625,12.2421875,-12.2421875,0.22198097601323408,True,True,True,1
17.06_11.06,140,36.48973796237101,36.5153308182416,0.5,29.069257446925352,0.5019729137420654,6.432910680770874,2.027024984359741,1.5250520706176758,2.027024984359741,89.64484587258205,18.116805156973324,121.24290316867696,10.996717217863427,5,-20.828125,8.004954809346065,20.03125,0.0,9.421875,9.421875,0.3165432098765432,True,True,True,1
17.06_11.06,141,24.651458313305852,22.538174267593334,0.9144296805249708,27.8567108232581,0.0,8.578567743301392,7.521377801895142,7.521377801895142,7.521377801895142,72.40446877892735,16.249373632528048,144.66099665041563,16.37148043308562,5,20.828125,7.915447344277591,21.8046875,0.09375,19.390625,-19.390625,0.2725311366088065,True,True,True,1
17.06_11.06,142,35.03686674418819,31.58099029089978,2.31592862381918,36.545255014331204,0.04249095916748047,3.3538410663604736,1.374406099319458,1.3319151401519775,1.374406099319458,100.43880558357169,22.795764328267555,213.4467826062645,39.28248642829172,5,-16.671875,12.21261962102616,16.5625,0.015625,12.40625,12.40625,0.10947999586477825,True,True,True,1
17.06_11.06,143,39.78554648955643,39.98925102766875,0.8220591523728691,28.808432467768878,0.805366039276123,8.07896900177002,2.8273682594299316,2.0220022201538086,2.8273682594299316,76.3497806036289,21.298475628852714,180.31315273172976,14.422525680944055,5,25.0,11.075820924048987,25.6953125,0.0,22.1875,-22.1875,0.2730140283888105,True,True,True,1
17.06_11.06,144,27.537798064943846,24.22761934368501,1.625675941147251,31.857075996011076,0.0,6.033099174499512,4.92975378036499,4.92975378036499,4.92975378036499,119.47946569239916,28.866509257514565,181.82619754600614,11.381865849662317,4,-20.828125,18.26709641702451,21.953125,0.046875,12.328125,12.328125,0.18758362322718758,False,True,True,1
17.06_11.06,145,36.45793005729343,30.458800458826754,0.8950002182262303,1.1267347735824966,0.0,5.10498833656311,1.5510013103485107,1.5510013103485107,9.51229214668274,120.87204754154763,25.653992684364926,256.82047741847816,6.845121983123329,4,20.828125,13.6446232635342,21.59375,0.078125,0.9375,0.9375,0.12828395751816657,True,True,True,1
17.06_11.06,146,23.12492741753812,21.09405671073312,2.276107216828768,15.287351798136916,0.020552635192871094,5.067477703094482,4.709414482116699,4.688861846923828,4.709414482116699,103.53502699714706,22.61426080116994,228.045343655727,9.766704440556044,8,-16.671875,17.76907652649746,17.2734375,0.0625,13.25,13.25,0.13062555588496888,False,True,True,1
17.06_11.06,147,13.75184646692945,12.41418049818055,7.131849777582251,7.404139994793454,0.0,6.454488039016724,,,,92.29918071479904,28.538349225336898,286.60332325960457,13.689660580089052,7,12.5,15.681978811002034,12.3125,0.046875,5.34375,5.34375,0.07247045790251108,True,False,False,1
17.06_11.06,148,36.36003722672608,34.026666393858015,11.208299450072701,11.208299450072701,0.08368968963623047,0.3968353271484375,,,,50.93786077436939,23.79650164714371,52.96261985194986,1.460791885956067,1,-25.0,21.40744583852377,25.2890625,9.21875,9.21875,9.21875,0.9846816658688368,True,False,False,1
17.06_11.06,149,23.86485386504598,21.902272340819028,5.633673867912483,133.99194038407916,0.020943880081176758,7.600489854812622,,,,137.13257159315603,35.81545540295155,358.7506303085372,3.1352191419412896,6,16.671875,18.906698616017604,16.875,0.25,30.390625,-30.390625,0.12488262910798122,True,False,False,1
17.06_11.06,150,36.36334062629431,36.7032998163275,1.0387981336621663,30.017241800302898,0.5834434032440186,7.215230464935303,6.007456541061401,5.424013137817383,6.007456541061401,97.98006636093946,17.135311036007728,126.94483802603585,18.01401020614713,5,-25.0,10.449418728562463,25.1640625,0.03125,18.67578125,18.67578125,0.3334369817578773,True,True,True,1
17.06_11.06,151,30.772415612892463,27.154510336970265,1.4711582649820514,33.940395618081915,0.0,2.9722189903259277,1.8769845962524414,1.8769845962524414,1.8769845962524414,82.8354492104518,25.74904552358561,93.65361780529769,28.885678309299635,3,25.0,13.494578340974144,24.400390625,0.03125,26.46484375,-26.46484375,0.42356655463896525,True,True,True,1
17.06_11.06,152,30.97988195732979,29.976956736477838,1.020421366703481,24.12006893065869,0.44700050354003906,5.166983366012573,8.521899223327637,8.074898719787598,8.521899223327637,77.04450589170766,19.464511775430022,188.322498020948,26.749180355412673,12,-25.0,18.468455108201244,24.849609375,0.015625,18.48046875,18.48046875,0.2111004117412671,False,True,True,1
17.06_11.06,153,34.453496191399665,34.40370450144652,2.2519522780245587,26.345330060859457,0.020947933197021484,5.802283763885498,4.710958242416382,4.69001030921936,4.710958242416382,86.44163028653537,18.273592143470566,108.84059064300848,13.298593333937148,6,33.34375,15.924218515960417,33.451171875,0.0625,25.328125,-25.328125,0.4851985354639117,True,True,True,1
17.06_11.06,154,24.06197628095344,21.76731805727325,1.761402583880244,21.645279564870634,0.02075362205505371,3.7793047428131104,6.64502477645874,6.6242711544036865,6.64502477645874,90.47899610663241,23.703557476412083,213.68832878186765,51.547082391334634,3,-16.671875,17.28747750158434,17.513671875,0.171875,13.3984375,13.3984375,0.1281592355768537,False,True,True,1
17.06_11.06,155,36.52481447939067,35.58270858704583,2.6108248217756778,30.253857831626846,0.0,4.529945135116577,3.4897754192352295,3.4897754192352295,3.4897754192352295,85.39127699806654,23.185288990809187,113.05007858069973,17.956233736950182,4,33.34375,16.797842148005323,33.4140625,0.0,27.87890625,-27.87890625,0.5153322489306584,True,True,True,1
17.06_11.06,156,31.215230657485137,29.548747503132958,0.09375,28.567477537536735,0.23026585578918457,7.526546001434326,3.5342538356781006,3.303987979888916,3.5342538356781006,89.79073766401163,16.196966906646203,126.79291410108766,47.78776777124202,4,8.328125,7.18197410677965,8.625,0.0,7.736328125,-7.736328125,0.1298861731227389,False,True,True,1
17.06_11.06,157,35.59062517363588,34.492633420107346,0.6067652449671125,30.842356858101812,0.04096221923828125,0.42870354652404785,7.550274610519409,7.509312391281128,7.550274610519409,88.6608736990063,24.058902902455518,214.57695769327768,39.02353793011136,5,-33.34375,23.44849317353501,33.416015625,0.0,27.96875,27.96875,0.20927672378995266,True,True,True,1
17.06_11.06,158,41.29065527320468,38.869618328508274,0.5661772166247949,42.41380725108542,0.020491838455200195,4.201866626739502,3.055830955505371,3.035339117050171,3.055830955505371,119.69149603828454,23.37872319365634,104.85128901421342,25.21240530598869,3,29.171875,14.637826091649682,28.890625,0.0,26.64453125,-26.64453125,0.5034032126327252,True,True,True,1
17.06_11.06,159,29.005388482748447,29.99134046824642,2.437149413890129,21.070015582353637,0.0,0.476593017578125,3.8501484394073486,3.8501484394073486,3.8501484394073486,161.33812028083264,18.932675074319416,185.18431338796682,18.363068613906602,6,-29.171875,11.575081386364145,28.9921875,0.015625,20.234375,20.234375,0.2672767889313252,False,True,True,1
17.06_11.06,160,36.67940799821957,35.83953380315569,0.0625,28.760432730484542,0.22887444496154785,4.413716077804565,4.783772706985474,4.554898262023926,4.783772706985474,79.28654417921145,23.687823268162376,207.0921504795719,22.16566050444072,5,12.5,15.22623780805858,12.455078125,0.0625,13.76953125,-13.76953125,0.09148319563994982,True,True,True,1
17.06_11.06,161,38.5940612039104,33.44515464369428,2.293045276619064,21.77759704168842,0.0,0.1050424575805664,4.735008239746094,4.735008239746094,4.735008239746094,56.5380257063232,14.18701763796484,110.01577534489317,6.398718285058631,4,-25.0,6.687820201772402,24.884765625,0.09375,11.8828125,11.8828125,0.3997669364744417,True,True,True,1
17.06_11.06,162,34.578101667076545,30.54863825633487,4.388483686024138,4.753699217451604,0.0,0.703345537185669,,,,83.60209094174895,23.744265463079387,52.882780880140395,1.3974802729318772,2,25.0,16.81676063480365,25.365234375,0.1875,0.1875,-0.1875,0.9041874167075823,True,False,False,1
17.06_11.06,163,42.79817639503439,42.301315700188816,1.2500976524356007,34.50887372434308,0.3333854675292969,3.6045870780944824,7.483448028564453,7.150062561035156,7.483448028564453,96.81962532215391,21.751599407911932,221.4255775167048,23.95905485864488,7,-25.0,17.29917376224368,24.982421875,0.015625,17.0546875,17.0546875,0.19242522316388433,False,True,True,1
17.06_11.06,164,25.105011689670185,21.97877171841047,1.2346778208460143,23.505032913519287,0.04130291938781738,9.92515230178833,8.813564538955688,8.772261619567871,8.813564538955688,72.53532820718056,22.39058833294259,229.05914917109808,136.4420646368317,7,4.171875,11.379403840743247,4.20703125,0.1171875,3.453125,-3.453125,0.028234723046221887,True,True,True,1
17.06_11.06,165,38.17002701160494,34.085467513466384,2.013201061897445,8.139410298049853,0.0,3.2766735553741455,6.3053810596466064,6.3053810596466064,6.3053810596466064,88.83420613636453,21.705301477896384,211.8381391553103,5.465955740960411,6,-25.0,16.972525448759946,24.818359375,0.0,6.0,-6.0,0.17000923163373158,False,True,True,1
17.06_11.06,166,36.35329862212271,32.62645037120132,0.7514634160256906,41.22543139674413,0.04195237159729004,5.509779691696167,1.8769161701202393,1.8349637985229492,1.8769161701202393,108.20386864379405,21.364462606923922,123.05574255364289,10.896149331036044,5,20.828125,9.13193014894314,20.892578125,0.046875,14.0703125,-14.0703125,0.3728819480837089,True,True,True,1
17.06_11.06,167,31.017298701790644,28.23946062486068,3.2419145216407235,25.96249266520118,0.0,8.773859977722168,2.209113121032715,2.209113121032715,2.209113121032715,58.14323435054927,17.33986586195278,156.2049357415617,19.435117913537162,4,-25.0,9.274549413436354,25.080078125,0.078125,17.140625,17.140625,0.2675514682829972,True,True,True,1
17.06_11.06,168,27.79339231274225,27.51672520514796,1.881499152936296,24.009194202430034,0.04208016395568848,9.769150733947754,7.648405075073242,7.606324911117554,7.648405075073242,75.00801019278596,13.762919531295202,137.00865641706133,32.23733092166149,8,25.0,9.292729687268091,25.1875,0.046875,20.9375,-20.9375,0.34468723221936587,True,True,True,1
17.06_11.06,169,46.4039838346748,42.38384990494844,3.5112820397256614,31.392678193181048,0.0,9.208767175674438,7.863698959350586,7.863698959350586,7.863698959350586,106.67749066047966,16.86197463002327,154.54755719232034,8.377393187700497,6,-33.34375,10.948315658768504,33.841796875,0.03125,16.015625,16.015625,0.37704739501655343,True,True,True,1
17.06_11.06,170,21.165719599324436,18.863465681693118,1.7151240161064156,20.63802264064135,0.04098916053771973,2.7512993812561035,6.040762901306152,5.999773740768433,6.040762901306152,93.00885982684439,24.043821630535074,179.19156892754185,335.12552620121767,4,16.671875,11.87880084804275,16.89453125,0.140625,16.421875,-16.421875,0.13785234467907306,True,True,True,1
17.06_11.06,171,42.17138870597724,42.615055837213085,0.32211762700137975,24.69992888282082,0.33309268951416016,4.549834251403809,2.025438070297241,1.692345380783081,2.025438070297241,138.208005817284,24.896217171332154,202.71468107178796,11.48843833011232,6,-29.171875,11.66630624770921,28.859375,0.015625,15.4765625,15.4765625,0.2517601732044529,True,True,True,1
17.06_11.06,172,31.855328642012548,27.926120838699674,1.8500950144519606,48.654724606789216,0.0,0.1459507942199707,2.173947811126709,2.173947811126709,2.173947811126709,78.73376751936655,24.61367000450057,132.2770445291734,4.170077519290119,4,25.0,14.748448660432818,26.109375,0.0625,48.46875,-48.46875,0.30364298724954464,True,True,True,1
17.06_11.06,173,35.080947130351255,32.4724802732661,1.6441183047457382,21.279764311209487,0.0425114631652832,5.2772440910339355,3.2784042358398438,3.2358927726745605,3.2784042358398438,120.62439309656537,28.322516358191095,191.71752073582394,5.284330767634398,3,-25.0,18.878108673308162,25.46875,0.203125,17.984375,17.984375,0.17757522512629037,True,True,True,1
17.06_11.06,174,38.54077921627501,38.099139739009054,1.0043849174992623,31.87862360683733,0.22927355766296387,7.048252582550049,3.3814516067504883,3.1521780490875244,3.3814516067504883,117.898994328747,21.598478236020302,152.84486065097568,17.250103332349312,5,16.671875,7.5978388726606925,17.1796875,0.0625,9.2734375,-9.2734375,0.21205962059620595,True,True,True,1
17.06_11.06,175,33.09934170808823,31.99516027330238,1.5,15.880543139031014,0.020940065383911133,2.666997194290161,7.009658575057983,6.988718509674072,7.009658575057983,81.37740965951646,21.85024682089077,184.43025706028982,10.708577151700787,4,33.34375,17.852495222190644,32.50390625,0.0,15.640625,-15.640625,0.27634419315200426,False,True,True,1
17.06_11.06,176,41.31436314616082,39.26171666104425,2.327023648891433,33.504824390620065,0.04139232635498047,4.092756986618042,2.961625576019287,2.9202332496643066,2.961625576019287,92.50582966421457,23.510672522023942,100.38773146186998,12.794248042347139,3,-29.171875,14.99841850978802,29.42578125,0.09375,23.37890625,23.37890625,0.49411067973942224,True,True,True,1
17.06_11.06,177,44.067991263545316,42.335565002570995,1.03125,37.56320702622084,0.08339810371398926,4.132824182510376,3.0463640689849854,2.962965965270996,3.0463640689849854,125.93145247584822,31.909512411403902,141.57351972489505,20.21421291425173,4,29.171875,11.618283394959844,28.3359375,0.03125,22.26953125,-22.26953125,0.403294929593143,True,True,True,1
17.06_11.06,178,26.08308896406303,19.27772685156309,0.140625,30.531412176913822,0.0,4.431523561477661,0.687638521194458,0.687638521194458,0.687638521194458,109.94027884610996,30.78057068342601,143.2937093161786,23.31610361631291,3,-8.328125,9.288381725325447,9.60546875,0.0234375,6.86328125,6.86328125,0.13372219799389445,True,True,True,1
17.06_11.06,179,43.48702844603671,37.44715107368191,3.13264689400194,3.502231431530475,0.0,0.041052818298339844,6.575446128845215,6.575446128845215,9.861682415008545,79.18784096317427,19.08992682722673,191.13938554983878,4.778387575088559,2,33.34375,10.025068960817137,33.2734375,0.15625,2.875,-2.875,0.28647698857876597,True,True,True,1
17.06_11.06,180,26.030501520906807,23.004348426749814,1.0250929627479601,19.637793094771535,0.08408761024475098,0.3339381217956543,0.48014283180236816,0.3960552215576172,0.48014283180236816,79.65992418542,14.54280373521182,120.45055515262763,18.28813871613103,5,0.0,7.2872195731918525,1.259765625,0.0078125,2.322265625,-2.322265625,0.019002727380528876,True,True,True,1
17.06_11.06,181,33.96651560182331,33.707823219416085,0.25194555463432966,29.312975784051783,0.021199703216552734,8.320202112197876,7.200484275817871,7.179284572601318,7.200484275817871,87.30867838540959,15.715205437799604,135.19155143850946,23.816003355487094,3,33.34375,25.57301339381908,33.2890625,0.03125,27.9765625,-27.9765625,0.32382473756275676,False,True,True,1
17.06_11.06,182,17.42054465650114,11.39306296381749,1.3245586307922537,19.52850136909272,0.0,8.303643465042114,0.35614657402038574,0.35614657402038574,0.35614657402038574,79.55830969823568,14.49207107384178,124.17429668523489,47.07321881803435,7,0.0,2.948827861647659,2.431640625,0.04296875,1.0546875,1.0546875,0.06211590228046117,False,True,True,1
17.06_11.06,183,30.691314770927686,29.147014893001504,1.5811388300841898,28.15725824750346,0.020913362503051758,5.664428234100342,4.640241384506226,4.619328022003174,4.640241384506226,93.78284789289563,16.22990601580783,95.87003507380943,16.780389182805614,5,29.171875,11.82725149370549,28.65234375,0.015625,24.13671875,-24.13671875,0.47585356354667013,True,True,True,1
17.06_11.06,184,38.53905537325091,36.85194943782709,3.088576798563539,31.815726905347063,0.10495924949645996,4.974032878875732,3.8092947006225586,3.7043354511260986,3.8092947006225586,84.20066999928993,21.69046935812038,112.9811976626167,12.695204499332235,3,-25.0,17.494784006422297,25.09375,0.078125,16.421875,16.421875,0.338156088288098,False,True,True,1
17.06_11.06,185,36.127100266382115,40.61360717654399,1.0387981336621663,29.587104349266998,0.0,5.338845252990723,4.299873352050781,4.299873352050781,4.299873352050781,76.1718922832316,19.660671994439305,111.74108722719723,10.517888714327118,5,33.34375,23.20904919258135,36.10546875,0.28125,28.33984375,-28.33984375,0.35852228303362,False,True,True,1
17.06_11.06,186,23.58863542711779,19.092484202781137,0.0078125,27.033706535776776,0.020974159240722656,2.575995922088623,0.5627031326293945,0.5417289733886719,0.5627031326293945,86.73590510672302,21.528931331333617,67.77919294730216,18.092590436060078,3,4.171875,1.9236176115652053,2.04296875,0.0078125,3.90625,-3.90625,0.1391559829059829,True,True,True,1
17.06_11.06,187,46.318087715640736,45.63748508140719,2.6400239700616357,25.06234900983196,0.33384037017822266,9.94212031364441,8.974830865859985,8.640990495681763,8.974830865859985,73.18338120910258,15.06902141958843,156.0329356605945,6.178891013168098,4,33.34375,16.19454828958099,33.24609375,2.4375,23.390625,-23.390625,0.29395102679736124,False,True,True,1
17.06_11.06,188,22.927919970205675,21.775939293977878,2.189340743380299,15.759615430448326,0.06313657760620117,0.7823429107666016,4.596429109573364,4.533292531967163,4.596429109573364,121.65444718767367,19.23581503486437,123.239747750931,3.1897763605946943,7,-20.828125,14.13845718947211,20.8671875,0.0625,13.578125,-13.578125,0.2494964163582705,True,True,True,1
17.06_11.06,189,27.876747521333332,26.421882218822933,1.0915155747858112,22.532810617437164,0.18725109100341797,5.708968639373779,1.8742260932922363,1.6869750022888184,1.8742260932922363,70.40152264258118,15.618718304536234,93.39003129410256,15.88875975823989,4,8.328125,5.703878960487267,8.65234375,0.1015625,4.87109375,-4.87109375,0.22950304046970016,True,True,True,1
17.06_11.06,190,34.34700231451304,33.81553605246596,3.9142418247343893,3.9142418247343893,0.042375802993774414,3.1568329334259033,10.012548208236694,9.97017240524292,10.012548208236694,110.08846451227176,20.994110273403887,208.29394307111227,6.800740902724366,8,-33.34375,25.65949313952056,33.40234375,3.90625,3.90625,3.90625,0.18743484088765328,True,True,True,1
17.06_11.06,191,35.80839773386407,34.37537286729593,0.2670001170411728,34.73673307897563,0.10423707962036133,3.530270576477051,2.4888498783111572,2.384612798690796,2.4888498783111572,108.48200882073823,27.22669872719205,106.02420366529829,93.94913495820057,4,25.0,17.098802551052913,25.63671875,0.03125,24.625,-24.625,0.37931832648573577,True,True,True,1
17.06_11.06,192,26.64520671744967,26.2734375,2.5001953048712013,23.28645207191633,0.0,2.7387049198150635,6.114539623260498,6.114539623260498,6.114539623260498,88.27658167151635,23.079131262015245,170.57657188378064,29.953501066092418,5,-25.0,15.807128926150822,26.171875,0.03125,21.6796875,21.6796875,0.19895350220002378,False,True,True,1
17.06_11.06,193,40.391350331978565,40.090992238798556,0.6157518904761885,43.21502223732688,0.33185505867004395,3.395050048828125,2.355775833129883,2.023920774459839,2.355775833129883,118.4163922192033,27.750643869374112,114.77510769286049,39.85341368192552,3,25.0,18.03174158404816,26.765625,0.140625,28.1953125,-28.1953125,0.39231034879705307,True,True,True,1
17.06_11.06,194,39.69735379179939,37.26133688640948,7.3153206365562,7.3153206365562,0.0,3.0500502586364746,,,,92.87203929598441,35.3959826900231,125.9386606319973,3.8771500795581333,1,-33.34375,43.57991157234469,33.37109375,6.671875,6.671875,6.671875,0.30376427714323806,False,False,False,1
17.06_11.06,195,16.358722546235892,8.540777789751132,0.2734375,18.39609360069754,0.0,2.775876760482788,0.27153873443603516,0.27153873443603516,0.27153873443603516,108.19308208277032,23.71106087663652,186.18614386704184,64.60595400775914,8,-4.171875,9.13840843348234,5.23046875,0.0390625,3.796875,3.796875,0.04401974098241198,True,True,True,1
17.06_11.06,196,42.85677455198886,40.16589819039786,1.7776828316659865,44.519230834129424,0.06319522857666016,3.340101718902588,2.2724416255950928,2.2092463970184326,2.2724416255950928,120.67921546741564,26.08430764282783,105.80562503305885,59.546451093129185,3,25.0,14.448286824176728,24.375,0.0,25.84375,-25.84375,0.4334537371492081,True,True,True,1
17.06_11.06,197,9.073224266493575,3.822656828792364,0.28683687110446593,13.289016714583457,0.0,1.3634283542633057,0.1453711986541748,0.1453711986541748,0.1453711986541748,67.77917947096928,14.944754905595895,94.61431277603822,22.251328985960043,4,0.0,4.291828935830671,1.150390625,0.03125,1.017578125,-1.017578125,0.02336105675146771,False,True,True,1
17.06_11.06,198,38.372227869959566,34.9676224404895,1.7584200339011724,32.353395536771544,0.0,2.5506465435028076,3.555309295654297,3.555309295654297,3.555309295654297,110.84756907829744,27.75593055321934,137.7631018353365,19.967385132630035,4,-29.171875,21.80794600079747,29.73828125,0.015625,23.00390625,23.00390625,0.29596639309191336,False,True,True,1
17.06_11.06,199,39.06730282974018,39.05852968104056,1.9347258365205133,38.16709062321394,0.0,6.163559198379517,5.1029040813446045,5.1029040813446045,5.1029040813446045,103.1284922311809,27.4460208879555,175.80432447783375,16.546289362619646,3,33.34375,22.754809620357335,35.640625,0.125,29.265625,-29.265625,0.27027348394768136,False,True,True,1
17.06_11.06,200,27.720627713603125,26.636278584338875,0.8884293109893437,25.468019364999247,0.02121567726135254,3.8125686645507812,4.7419753074646,4.720759630203247,4.7419753074646,80.89804506815396,24.1545037628644,148.50472519389183,15.7448274675349,3,-25.0,14.546071074116815,26.615234375,0.734375,20.58203125,20.58203125,0.2275201318658677,True,True,True,1
17.06_11.06,201,35.49926069322606,30.60396504362795,1.5000813780008737,26.64109036662823,0.0,0.12406730651855469,1.6695818901062012,1.6695818901062012,1.6695818901062012,68.40273848885036,18.99505319061058,167.04988697079955,18.85823983883799,9,25.0,8.867334303014601,25.203125,0.015625,18.92578125,-18.92578125,0.2918043173281441,True,True,True,1
17.06_11.06,202,25.51011337488358,24.71465891706707,1.0001220628628287,27.065515856714942,0.0,2.9689409732818604,1.8843109607696533,1.8843109607696533,1.8843109607696533,68.56317935861995,25.6973083056267,93.71095173163806,20.79504405785156,4,-25.0,13.90051820434647,24.91015625,0.015625,25.150390625,25.150390625,0.40336719516440395,True,True,True,1
17.06_11.06,203,44.266267706517105,44.654455555979816,1.2535106950082238,23.080748412164304,0.22870826721191406,2.950861930847168,6.313833951950073,6.085125684738159,6.313833951950073,102.02422729164299,19.041218150171048,190.72523468226936,6.9154389907072815,6,33.34375,20.35105743419269,36.18359375,0.0,23.046875,-23.046875,0.28500661518107134,False,True,True,1
17.06_11.06,204,10.31316581657428,12.030098996282264,0.5060667106469264,12.229956597588817,0.0,0.1671760082244873,2.197227954864502,2.197227954864502,2.197227954864502,73.8177893256111,18.297220614552383,72.77134573240086,15.264556818977665,4,8.328125,6.837873436211146,9.8671875,0.015625,9.4609375,-9.4609375,0.3538655815911323,False,True,True,1
17.06_11.06,205,35.28602523181318,33.97511210868702,0.125,18.669625910569955,0.20843982696533203,0.437640905380249,2.2517945766448975,2.0433547496795654,2.2517945766448975,53.03712483527715,19.286860481525736,77.81581734359077,4.489527658480524,3,-25.0,11.69649760358601,25.6328125,0.03125,15.765625,15.765625,0.5583574714602146,True,True,True,1
17.06_11.06,206,38.863261422311254,37.250838916727766,18.77500936251431,18.777297837082415,0.06235170364379883,0.25058627128601074,,,,79.93852232109282,24.889606168661132,48.25858142449674,1.2964090239066752,2,33.34375,27.536486803724365,32.5390625,14.84375,14.84375,-14.84375,0.8003533568904594,True,False,False,1
18.06_09.45,207,20.440104000775044,26.27528544088532,14.185650003282367,70.81084508216237,0.0,7.901965141296387,,,,273.67825824562533,43.07814104568861,430.8998234147034,7.71110958901855,9,12.5,24.80005405503506,14.53125,10.56640625,70.1875,-70.1875,0.027779298264820187,True,False,False,2
18.06_09.45,208,25.318191152265523,25.69040932619907,2.002988489888297,18.48522028921011,0.43790483474731445,3.7462048530578613,4.2245166301727295,3.786611795425415,4.2245166301727295,71.90130570134914,20.3297283874411,200.0857073972777,4.730824637751526,9,-16.671875,12.462019741464104,16.4453125,0.015625,17.484375,-17.484375,0.11369411255879332,True,True,False,2
18.06_09.45,209,37.66717943050687,35.00825795437414,1.1876027916037415,33.56423871812884,0.0,5.494504690170288,3.3571090698242188,3.3571090698242188,3.3571090698242188,92.55576079090334,19.914529127744473,114.671669957746,17.446893662614862,3,29.171875,13.031285304603324,29.4375,0.0,22.94140625,-22.94140625,0.40177000586447725,False,True,True,2
18.06_09.45,210,32.39751814767462,30.541983303980523,0.2795084971874737,30.280614068722354,0.020973920822143555,6.055423974990845,1.4213478565216064,1.400373935699463,1.4213478565216064,88.71162810777464,17.78209127175048,113.47669965625396,22.017713822551826,4,-25.0,8.050320112052196,25.2890625,0.125,20.5390625,20.5390625,0.3256166599272139,True,True,True,2
18.06_09.45,211,39.21774229905587,36.54081304605039,0.5002440810494413,29.090679592614475,0.021392345428466797,0.5799994468688965,4.787773609161377,4.76638126373291,4.787773609161377,113.85747692029508,16.963798488672428,106.55465913789962,9.774740523724997,4,29.171875,11.581889706901066,30.0078125,0.0,19.8671875,-19.8671875,0.47151976430149767,True,True,True,2
18.06_09.45,212,16.30390885179552,17.097612966160657,3.6431472620052365,13.3930792857321,0.0,3.1977362632751465,4.242077589035034,4.242077589035034,4.242077589035034,57.51655570332871,14.357575604300504,141.529719290287,9.913785556755919,7,16.671875,6.413634620771595,16.0703125,0.078125,5.4140625,-5.4140625,0.18439780199981984,True,True,False,2
18.06_09.45,213,28.248238027532906,27.130373936630622,2.850438562747845,28.374328874221852,0.02094292640686035,8.059272527694702,2.3830649852752686,2.362122058868408,2.3830649852752686,68.66576512150438,13.822081310587292,116.89969375154374,21.095536433710468,4,-25.0,10.09670422940359,27.3671875,2.5625,25.59375,25.59375,0.32993868855866154,True,True,True,2
18.06_09.45,214,31.326468940019396,29.133083809744978,0.8125,36.030480938236515,0.020906925201416016,3.807932138442993,2.4224894046783447,2.4015824794769287,2.4224894046783447,89.36782106300384,23.600751728071938,97.67997703905831,15.841256299264312,3,25.0,13.738388881723157,26.3125,0.03125,27.734375,-27.734375,0.43847758081334726,True,True,True,2
18.06_09.45,215,37.83328780340965,34.9168795364434,0.7525996611745185,40.164411257238974,0.0,3.276843786239624,2.2535932064056396,2.2535932064056396,2.2535932064056396,66.36544652839588,27.825068342811463,112.27493073849351,24.944571877259577,2,-33.34375,15.020523753933238,33.671875,0.03125,33.765625,33.765625,0.45818259204085976,True,True,True,2
18.06_09.45,216,25.19668843142202,26.0625,4.00195264839553,11.897206313517735,0.12640118598937988,2.0729315280914307,,,,104.30957354820437,20.27972319511949,199.0537193173363,11.804665191267825,4,25.0,12.938307605347935,25.1171875,0.0,10.2734375,-10.2734375,0.19283829174664108,False,False,False,2
18.06_09.45,217,32.3359375,33.15161445564341,1.005963662676242,25.94376924422618,0.0,0.0837709903717041,3.694133996963501,3.694133996963501,3.694133996963501,60.418132783201486,19.298427177289636,98.29801790773459,10.345760527880199,3,-29.171875,8.891659214784795,32.3359375,0.078125,25.1796875,25.1796875,0.42787564766839375,True,True,True,2
18.06_09.45,218,9.509070633684779,12.61199825562944,6.162081826899595,19.60269433011697,0.0,5.484681129455566,,,,126.65825715319332,18.300953091535234,185.85268887438437,7.064129277361199,6,8.328125,10.89186357548836,9.0234375,0.0234375,15.875,15.875,0.07294370923827012,True,False,False,2
18.06_09.45,219,41.846551233018666,40.62613279670642,2.0700618952098995,34.27259270848813,0.14531540870666504,4.292577266693115,3.1471939086914062,3.001878499984741,3.1471939086914062,90.963369666177,21.143401918267152,96.08092058377876,11.566669764867392,3,29.171875,16.78157109540023,29.6796875,1.8125,22.03515625,-22.03515625,0.5229055193139339,True,True,True,2
18.06_09.45,220,28.380850167850856,25.777661918876706,9.263503656824453,14.502727383582027,0.0,0.041562557220458984,,,,44.03984816454541,20.805254131445622,58.077242455756746,1.532766077829512,3,-25.0,9.62044255868582,24.6875,0.125,0.28125,-0.28125,0.656641604010025,True,False,False,2
18.06_09.45,221,31.560968403433062,30.755899499183993,0.18814991529362962,34.05831754712239,0.0,0.10438179969787598,1.7741758823394775,1.7741758823394775,1.7741758823394775,110.73328307716577,32.21783586781167,114.07518269740929,24.961681164941822,2,29.171875,16.90191041590666,29.71875,0.0,30.515625,-30.515625,0.3992443324937028,False,True,True,2
18.06_09.45,222,29.445345665277156,28.4689086507654,0.8917208170862672,6.642683504475055,0.06328177452087402,8.533732414245605,3.063535451889038,3.000253677368164,3.063535451889038,48.94049780376263,15.901755315437953,158.7817434159055,5.6525294238505985,9,-29.171875,6.32755387189008,28.5703125,0.015625,0.484375,0.484375,0.2735164259522562,True,True,False,2
18.06_09.45,223,35.350978068373514,35.93956855459766,1.741048534648015,31.121157244271238,0.041344642639160156,5.873640775680542,4.293801546096802,4.252456903457642,4.293801546096802,90.41552084776669,19.0332883488159,117.16914148665374,12.58336929553665,6,33.34375,16.582528667134603,34.859375,1.40625,28.4453125,-28.4453125,0.4728879072335726,True,True,True,2
18.06_09.45,224,25.75660280181812,24.434453984157418,1.4630874888399532,1.6828640022295325,0.0,0.8110947608947754,9.61356234550476,9.61356234550476,9.61356234550476,91.34443693099223,16.28457680675223,163.78353142494913,6.110559449667765,7,-25.0,8.242469338693898,23.890625,0.03125,0.4375,-0.4375,0.20166402535657688,True,True,False,2
18.06_09.45,225,17.949026199320848,17.41626871679537,0.2619227283475033,15.499818862348844,0.0,4.085860252380371,4.2550928592681885,4.2550928592681885,4.2550928592681885,143.28885359512324,20.207958235918216,202.77806062568698,6.0760625991706885,8,16.671875,10.595005175646886,17.1640625,0.078125,15.296875,15.296875,0.13487511563367252,True,True,False,2
18.06_09.45,226,33.943891116674074,35.43772045786805,1.3838493640927831,24.931644832671992,0.0,3.941072463989258,4.855602979660034,4.855602979660034,4.855602979660034,75.29026069817894,20.126856973466186,159.7280161827482,14.806693417139513,6,-33.34375,18.816397297285828,33.515625,0.03125,24.90625,24.90625,0.2696954442486786,True,True,True,2
18.06_09.45,227,29.497918524289556,32.26750618759383,1.1730202736952162,25.757583834668964,0.020726442337036133,2.82667875289917,4.412139654159546,4.39141321182251,4.412139654159546,115.28325948299141,23.102695477693214,134.73781827228112,31.095117092528014,4,29.171875,26.895941872427038,29.453125,0.03125,25.75,-25.75,0.27541319292087174,False,True,True,2
18.06_09.45,228,17.33370345282926,11.552360418979317,1.4630874888399532,3.7298367429294075,0.0,7.123713254928589,9.129726648330688,9.129726648330688,9.981209516525269,69.367258787875,16.4422773831964,162.5748254463568,9.7284947138137,8,-4.171875,5.405266980501514,6.359375,0.015625,3.7109375,3.7109375,0.060466155335468015,True,True,False,2
18.06_09.45,229,21.140851636349854,21.944400234687578,8.623315619042655,14.90431927027049,0.06240391731262207,1.8459014892578125,,,,97.23660839178163,16.62175592118364,165.76140245502995,9.550363125569381,9,20.828125,12.229890387916228,21.1171875,0.015625,8.1171875,-8.1171875,0.23974791407775609,True,False,False,2
18.06_09.45,230,38.365239495701054,33.57879845328606,1.141480843301805,31.8882937964702,0.0,8.62974739074707,1.6277589797973633,1.6277589797973633,1.6277589797973633,97.16101921513,18.27163228092476,162.46431931501198,15.010750851704904,5,-29.171875,6.51000813538266,30.03125,0.015625,19.3125,19.3125,0.29567492688933356,True,True,True,2
18.06_09.45,231,8.182522491041881,2.1830311495716224,2.0041460931029955,2.0041460931029955,0.0,3.260209798812866,0.08456683158874512,0.08456683158874512,9.845617771148682,62.69442779928039,21.533868034149773,216.73920360332352,24.012743627280454,6,-4.171875,9.591603030532614,4.0234375,0.0,1.96875,-1.96875,0.0308327845297252,False,True,False,2
18.06_09.45,232,35.29203032959646,35.9214774064556,19.051328693820807,22.305846346866105,0.0,0.4586336612701416,,,,74.7529298028291,29.829336916313295,63.21562679735736,3.0368430052444535,1,33.34375,24.362928925780466,35.2421875,17.6328125,19.1875,-19.1875,0.8665897731641676,True,False,False,2
18.06_09.45,233,20.779064734727594,19.937256623220666,1.875406856899657,3.0898906641507966,0.3544173240661621,4.264538288116455,0.8774142265319824,0.5229969024658203,9.889534950256348,95.2767104760181,15.309904418210415,152.08786738210037,6.722990704227002,10,-4.171875,6.867489361283007,6.0625,0.0234375,1.9765625,1.9765625,0.06272823176174633,False,True,False,2
18.06_09.45,234,34.28904024976494,33.4858596337343,0.6281172263200556,30.287845361797466,0.02180647850036621,3.340723991394043,4.242264747619629,4.220458269119263,4.242264747619629,93.09547730198804,24.83842992930534,141.03909106624428,28.22929470626076,4,-33.34375,25.858593446865736,33.3125,0.0,28.6328125,28.6328125,0.29008776107218176,False,True,True,2
18.06_09.45,235,37.008531566267344,34.83134676243737,1.350003616893303,35.355780998303516,0.0,10.278116941452026,7.715029001235962,7.715029001235962,7.715029001235962,93.48033868050003,20.126623606530696,212.70720785721227,84.1894119510734,6,29.171875,14.760507817484605,29.8515625,0.015625,27.375,-27.375,0.21941970698075267,False,True,True,2
18.06_09.45,236,28.212658534113725,24.07277707684359,1.066284619895176,26.00030047903293,0.0,2.9781975746154785,3.376168966293335,3.376168966293335,3.376168966293335,118.23260519563085,24.639082986943052,187.3503248131417,32.17424142469602,7,-20.828125,16.574544663671233,20.96875,0.015625,15.5,15.5,0.15821142048135914,False,True,True,2
18.06_09.45,237,33.38850912370761,28.37928450582396,2.12512924698858,27.713522090139048,0.0,3.244837999343872,3.537095069885254,3.537095069885254,3.537095069885254,81.19605020074123,22.00860212654415,145.34756987478374,25.611905615086343,5,8.328125,9.998474717910927,8.1640625,0.0,6.765625,-6.765625,0.09003963467172152,False,True,True,2
18.06_09.45,238,4.1252663266297125,8.626277220876121,0.14341843555223296,0.8315451191344039,0.02096700668334961,3.114701509475708,5.434721231460571,5.413754224777222,6.326835870742798,92.29247674594401,17.730079204494203,134.89056498355708,29.62413564455927,5,0.0,7.265725503224704,0.046875,0.046875,0.7421875,-0.7421875,0.0,False,True,True,2
18.06_09.45,239,17.295317017119295,16.637242907480193,0.32211762700137975,21.474038706747884,1.0010552406311035,5.6878602504730225,4.481327295303345,3.480272054672241,4.481327295303345,64.1643134235022,21.768529513780873,128.13082527952093,9.665708864654436,3,16.671875,23.061300624784085,17.0546875,0.046875,14.4609375,-14.4609375,0.16334033613445378,False,True,True,2
18.06_09.45,240,35.0938473952344,33.87370630025042,1.2406879706940823,21.320163635427527,0.06287288665771484,0.6703305244445801,3.71032452583313,3.647451639175415,3.71032452583313,96.7145341486146,22.79560445261521,145.23897595387388,10.405820572544085,7,-29.171875,18.733909876755195,28.75,0.078125,16.3984375,16.3984375,0.2779671286828751,True,True,True,2
18.06_09.45,241,29.547139409181813,29.341887296110595,5.9858434882333,16.489350552420948,0.3547027111053467,7.72412633895874,,,,77.18504618187903,16.95942458395448,167.1760778109028,9.188340323460528,9,29.171875,15.25146000020359,29.546875,0.0,13.734375,-13.734375,0.3096953815918768,True,False,False,2
18.06_09.45,242,57.91211909089199,54.84731113794459,7.1926781618966515,17.717509877237262,0.0618891716003418,3.1265125274658203,,,,124.91428218662219,22.35216329918382,224.25740613224568,5.471027801601606,7,33.34375,21.45567898384727,34.1796875,1.703125,13.6875,-13.6875,0.1882784546401558,False,False,False,2
18.06_09.45,243,20.924869382899534,22.611087800101664,3.740645885488895,4.857364937970484,0.0,0.0628969669342041,9.501814603805542,9.501814603805542,9.501814603805542,112.93796030840713,21.29167298415781,212.92925840332325,9.333762148094351,8,-20.828125,15.278380725554532,20.8515625,0.015625,1.015625,-1.015625,0.13924711533441236,False,True,False,2
18.06_09.45,244,30.502642407628496,29.54935374319758,5.182061343290428,5.182061343290428,0.14583253860473633,3.682061195373535,,,,66.22037029668074,21.477450654608976,118.79150593308424,3.965102704955886,7,25.0,20.14391121314246,25.0703125,3.703125,3.703125,-3.703125,0.3005824815913837,True,False,False,2
18.06_09.45,245,39.09613005469859,38.19502086844076,3.891628886549307,8.138465404523448,0.20775175094604492,2.62282395362854,8.310457944869995,8.10270619392395,8.310457944869995,92.7271024562755,16.05655069702161,161.37370749096723,3.426212427400462,6,-29.171875,28.433328892388815,29.0859375,0.015625,7.015625,-7.015625,0.229153836679394,False,True,False,2
18.06_09.45,246,36.49790049746227,32.190921579366226,2.362632271429475,33.942435508116624,0.02094244956970215,4.789932489395142,3.666532039642334,3.645589590072632,3.666532039642334,93.59151481503766,23.672451474071302,119.53888496101536,25.5950792349181,4,12.5,14.142302304360616,12.9453125,0.0390625,8.4453125,-8.4453125,0.1911152244331328,False,True,True,2
18.06_09.45,247,31.368821953058042,28.94338092408014,1.3975424859373686,28.298078556679428,0.02143263816833496,4.69475531578064,3.459806203842163,3.438373565673828,3.459806203842163,80.1120650455987,24.02881744864774,116.66102648860878,26.169990736195995,4,-25.0,18.528623672128056,25.0546875,0.0,20.625,20.625,0.3054576626345366,False,True,True,2
18.06_09.45,248,18.68027563377763,20.307811959009765,0.40050017556175926,14.515759552659482,0.0213623046875,3.8517403602600098,2.2932939529418945,2.2719316482543945,2.2932939529418945,50.12792810020078,14.123220934977484,147.4276738733018,25.334420342977754,6,16.671875,8.841004301128498,18.5859375,0.0625,14.359375,-14.359375,0.16117191217456325,True,True,True,2
18.06_09.45,249,37.03134971637418,33.58551134441197,2.5967603013177785,32.675809968980204,0.0,4.564946413040161,3.443303108215332,3.443303108215332,3.443303108215332,74.64899332999076,24.76225055359984,120.11747319733072,19.349851020593995,4,-25.0,18.792798693399337,25.4765625,2.59375,19.2890625,19.2890625,0.2809322846729331,False,True,True,2
18.06_09.45,250,34.14866181149161,32.75741749404104,2.918154382482188,35.27218730481036,0.04792284965515137,3.6404027938842773,2.576484441757202,2.528561592102051,2.576484441757202,84.65308180157089,34.25397562432003,136.08065347784876,25.080646114485,2,25.0,22.361499804482488,25.578125,2.0,22.546875,-22.546875,0.2494214876033058,False,True,True,2
18.06_09.45,251,24.860239221307285,23.800041083292403,1.9253652250936704,18.370975390991255,0.06155896186828613,2.213526487350464,2.6808435916900635,2.6192846298217773,2.6808435916900635,63.657677073425134,20.31564941644431,149.68531062742758,16.670176939046833,5,-25.0,10.501726738503606,24.515625,0.09375,16.4765625,16.4765625,0.30596065381227366,True,True,True,2
18.06_09.45,252,46.70158090141496,47.22812368180538,1.875,43.29929677907599,0.3351764678955078,7.183791637420654,5.949472904205322,5.6142964363098145,5.949472904205322,115.74804111618505,24.599905889153124,180.4123257562667,34.83073559095345,4,-33.34375,26.131258443746265,32.1484375,0.0,26.96875,26.96875,0.2398997259954527,True,True,True,2
18.06_09.45,253,30.483285795508085,31.584051467930873,4.135669204085961,12.130163607331312,0.02093982696533203,0.4693629741668701,,,,105.92321645951716,15.689248727604536,159.77743953375165,8.677406894012247,5,29.171875,12.598980045940918,30.390625,0.015625,11.984375,-11.984375,0.3504597079502434,True,False,False,2
18.06_09.45,254,30.375579702865856,29.184555525996966,1.1288994917617776,4.388483686024138,0.020941972732543945,3.244194269180298,3.4118802547454834,3.3909382820129395,3.4118802547454834,70.21092229094234,20.613778904704496,207.87022634046556,6.3686895993203265,6,-25.0,13.963201853614416,25.7421875,0.0,0.34375,0.34375,0.1737227816734328,False,True,False,2
18.06_09.45,255,22.04306531577732,19.562164596266086,4.494089271354793,10.2053620250582,0.0,2.2352523803710938,,,,108.60579714001827,15.240939877437567,152.42388582910058,4.985319370566519,7,12.5,13.748288863571853,15.421875,0.3359375,10.15625,10.15625,0.1429734932622538,False,False,False,2
18.06_09.45,256,29.029366192917475,29.93358635855644,0.1335000585205864,25.28937142613288,0.0,0.548764705657959,1.7206449508666992,1.7206449508666992,1.7206449508666992,97.92687076100621,20.992713513800457,126.47822010564539,8.76631110182373,6,-29.171875,10.034176499013007,28.96875,0.046875,22.7109375,22.7109375,0.38598686268376603,True,True,True,2
18.06_09.45,257,34.54987566824816,33.44902054018408,0.38049361443393503,40.82761971080362,0.08316874504089355,0.4369833469390869,3.3461740016937256,3.263005256652832,3.3461740016937256,55.605421844416014,21.28119915855236,142.05442222979025,4.7193821360106005,7,29.171875,16.44252151613654,30.1484375,0.046875,39.0625,-39.0625,0.40189840408887034,True,True,False,2
18.06_09.45,258,16.66101487016641,16.644462952365156,7.169883301874585,7.994138477659741,0.6032280921936035,4.051675081253052,,,,50.9144693018194,16.3136074664414,161.26187663733538,6.648839546792055,6,-8.328125,10.133018372789936,8.8359375,0.015625,1.375,-1.375,0.08006524359974469,False,False,False,2
18.06_09.45,259,48.972669180474085,46.189768238663056,0.6067652449671125,32.30198182441994,0.021410703659057617,10.659379720687866,9.469651460647583,9.448240756988525,9.469651460647583,88.53174599903697,15.9451867583338,172.95392284150074,10.311547365388043,9,-33.34375,26.7020708218215,34.6328125,0.0,21.7578125,21.7578125,0.2948649727284821,False,True,True,2
18.06_09.45,260,28.437092201746385,27.75028153010344,0.1335000585205864,28.6284124347676,0.1458425521850586,2.5058882236480713,1.4635093212127686,1.31766676902771,1.4635093212127686,63.25584736251403,26.423976192134944,85.65101650854817,85.06888658982041,2,-29.171875,12.730456636305298,28.390625,0.046875,28.5078125,28.5078125,0.4299087569617253,True,True,True,2
18.06_09.45,261,36.9358112187972,35.41680616164318,0.12597277731716483,22.053576688396298,0.29349803924560547,3.052157163619995,3.3039655685424805,3.010467529296875,3.3039655685424805,96.10377415620053,23.68172845979416,188.56346986416435,12.574916558355433,4,12.5,13.207300168774582,12.859375,0.0,6.33203125,-6.33203125,0.09954942695575918,False,True,True,2
18.06_09.45,262,25.226783881422538,26.42124666609479,1.6518958095548884,18.95154415874803,0.021418333053588867,6.448444366455078,5.162836313247681,5.141417980194092,5.162836313247681,57.28338292703323,15.65564182536769,102.71256482337301,12.428903395935414,5,25.0,11.122518447827616,25.0,0.046875,18.83203125,-18.83203125,0.3694834866099832,True,True,True,2
18.06_09.45,263,39.90971332000715,38.15043017143614,0.1288470508005519,30.275655160708848,0.41675591468811035,6.307628631591797,5.082272529602051,4.66551661491394,5.082272529602051,80.93636575855308,19.610603429344252,125.20072970403602,12.578184780535592,5,-25.0,9.842797183832793,26.7421875,0.03125,18.6171875,18.6171875,0.35342154227827166,True,True,True,2
18.06_09.45,264,12.831388516057022,15.619329049015077,0.9000664580497654,10.350218073072483,0.0,3.259849786758423,6.648847579956055,6.648847579956055,6.648847579956055,98.32407762653823,25.824689605282163,258.74579228712196,33.11017531077014,9,-12.5,13.742823707340301,12.0625,0.0546875,9.8671875,9.8671875,0.05857692747437021,True,True,False,2
18.06_09.45,265,41.710685081882794,38.902199211813524,1.5103807466993215,35.48570027935769,0.020943403244018555,5.772375822067261,4.54581618309021,4.524872779846191,4.54581618309021,86.05611812656221,27.017548089575786,160.52460879560243,19.18655288192054,5,-33.34375,27.204328844325307,34.375,0.625,26.0234375,26.0234375,0.3055810992431209,False,True,True,2
18.06_09.45,266,30.80260997464338,30.269993755741943,0.6344981407577173,8.382706925010858,0.020940303802490234,1.8415892124176025,5.2742626667022705,5.25332236289978,5.2742626667022705,44.99824807019959,12.995564008964829,128.65291978615517,3.30410671564383,6,29.171875,9.29780580538537,30.1875,0.046875,8.359375,8.359375,0.3923123856009762,True,True,False,2
18.06_09.45,267,29.473671753959604,27.390838918160668,0.3801726581436387,23.66115294509983,0.042140960693359375,8.756845712661743,7.569972991943359,7.52783203125,7.569972991943359,66.69342863420756,19.077996305530238,171.18555485523964,25.226815369376812,6,-25.0,9.836269563721318,26.6328125,0.03125,19.8515625,19.8515625,0.26651534126487164,True,True,True,2
18.06_09.45,268,25.4016226182625,26.274952101005937,4.3760043490037805,5.337830237149267,0.0,1.6055471897125244,,,,59.050023972115206,17.453477748195166,173.04669573334084,8.522813376898187,11,25.0,12.334652868520543,25.265625,0.09375,5.265625,-5.265625,0.228543055752589,True,False,False,2
18.06_09.45,269,46.15652042172813,43.86813361624422,2.191068517869763,37.951786977237646,0.020941972732543945,4.865256309509277,3.605168104171753,3.584226131439209,3.605168104171753,112.15857330626446,22.167230402187354,109.47367011606099,12.899578380381495,3,33.34375,16.172726071179998,32.3984375,2.109375,25.203125,-25.203125,0.5131700860357379,True,True,True,2
18.06_09.45,270,5.944486021726353,4.9020247032635655,0.7423108450137315,3.505332154821423,1.939699649810791,1.9607067108154297,0.25031542778015137,-1.6893842220306396,2.002197265625,22.341536743377873,9.588720885243285,19.413743522957606,2.3063003575183765,2,0.0,2.0194820899003507,0.90625,0.40625,2.578125,-2.578125,0.0443213296398892,,True,True,2
18.06_09.45,271,39.02844218408424,36.8627702508426,16.593786781974302,16.593786781974302,0.020450592041015625,0.5792577266693115,,,,44.61672667035255,28.21187124629712,36.565776205523335,1.2510998418151749,1,-33.34375,29.33702888588671,32.9765625,16.296875,16.296875,16.296875,0.937637241985068,True,False,False,2
18.06_09.45,272,37.54082413270252,42.256797830534026,10.125048225193794,16.2709300306559,0.0,0.12523102760314941,,,,89.72732296530738,25.689883093974988,254.87451648311696,9.360459087851073,7,33.34375,24.271974331854242,33.78125,0.03125,6.59375,-6.59375,0.18049636500376035,False,False,False,2
18.06_09.45,273,33.8760522207429,29.400520828720026,0.3125,29.669551523365772,0.021012306213378906,4.847329616546631,5.289987325668335,5.268975019454956,5.289987325668335,115.95068958085479,20.956161917581323,206.07264255389305,46.29612905550928,8,-25.0,17.517414917892623,24.15625,0.0,20.1796875,20.1796875,0.18427796650575123,False,True,True,2
18.06_09.45,274,38.47323351715612,32.99708590501071,1.9103439644472406,32.884567435054166,0.0,3.7058751583099365,2.578977108001709,2.578977108001709,2.578977108001709,95.97050295416282,22.297658216743006,88.33474882697385,15.010030500085197,3,25.0,14.269064088518595,24.546875,1.90625,19.640625,-19.640625,0.5089567966280295,True,True,True,2
18.06_09.45,275,9.101210427739819,5.911048191535597,2.456307648814578,10.387464274908481,0.042392730712890625,0.3954036235809326,0.2909407615661621,0.24854803085327148,0.2909407615661621,38.24501429972069,13.402996413882349,38.491928076196004,29.69129970438705,4,-4.171875,3.5655619666038327,3.5625,1.421875,3.90625,3.90625,0.16646415552855406,False,True,True,2
18.06_09.45,276,44.92847030389145,44.25552316453175,1.7264741210412047,43.979726802572415,0.43717074394226074,10.095964431762695,8.992252349853516,8.555081605911255,8.992252349853516,106.4157170966815,19.85959753104997,206.30309320511304,61.03207663551457,8,-29.171875,20.76682005012033,28.9296875,0.078125,25.7890625,25.7890625,0.212902109996541,False,True,True,2
18.06_09.45,277,40.492929100386235,39.84564946452749,0.9519716382329886,23.729464034800834,0.2928338050842285,0.43900251388549805,6.799631834030151,6.506798028945923,6.799631834030151,75.81181328641176,13.910308383972284,141.63780161869528,6.485798448923182,8,25.0,10.721128713583814,25.2890625,0.03125,21.4609375,-21.4609375,0.3705019482007793,False,True,True,2
18.06_09.45,278,28.22968365147757,25.650259082816785,0.32211762700137975,7.257017751158185,0.020481586456298828,0.25206804275512695,4.894062519073486,4.8735809326171875,4.894062519073486,60.29366852217099,19.695066972249137,195.17971257684184,5.5349640735928185,11,-25.0,13.387706191326885,23.59375,0.078125,4.734375,-4.734375,0.22597597597597596,True,True,False,2
18.06_09.45,279,8.29499154704964,5.287440898014842,4.953796533736146,8.732659295936505,0.04174661636352539,7.639375686645508,,,,77.39816907573861,14.985404255069017,148.44551266110705,8.858903158281585,7,4.171875,11.776795085910576,3.796875,0.2578125,6.4609375,6.4609375,0.046571399198108356,True,False,False,2
18.06_09.45,280,37.639377217020424,35.986950522517965,1.4553913777743772,30.804425959452747,0.0,6.160423994064331,5.717716217041016,5.717716217041016,5.717716217041016,1149.8145186871034,32.85278332789402,246.78887987519786,26.731758336543276,6,33.34375,25.11968319266336,33.2578125,1.375,24.1484375,-24.1484375,0.23696434792707002,False,True,True,2
18.06_09.45,281,16.09267479721461,12.421277992729099,4.10652229881015,13.121465297843073,0.020992517471313477,4.13041877746582,,,,63.989769162832346,17.951879233172875,181.16322379354767,8.69239696771171,8,-8.328125,8.636624124846833,7.7109375,0.171875,11.46875,11.46875,0.07711979541277073,False,False,False,2
18.06_09.45,282,43.94139218624764,38.56467227598215,3.5774084981310144,39.8967669637548,0.0,7.736657381057739,6.44986891746521,6.44986891746521,6.44986891746521,112.88493482291894,18.889883986572,143.32114740916614,21.621942932541543,4,33.34375,22.51449055315955,32.453125,3.46875,25.8671875,-25.8671875,0.31625607365101016,False,True,True,2
18.06_09.45,283,16.67756499961569,16.546926640618192,8.642659118617662,12.637524727967895,0.0,0.10523247718811035,,,,76.9534316327854,26.137403277883966,98.63737302635491,5.800693605711656,6,16.671875,15.798067122081907,16.0234375,7.5625,7.5625,-7.5625,0.43686970552642196,,False,False,2
